Timestamp,ideal_time,AccX,AccY,AccZ,AsX,AsY,AsZ,AngX,AngY,AngZ
2024-06-18 04:38:40.453737,0.04,-0.13775516537739638,0.17380413230191707,0.9824613638302722,0.04294458642227098,-1.9313801196983575,-0.7239162997518777,9.9214,7.4622,-0.02410261971868288
2024-06-18 04:38:40.554550,0.14,-0.13419514831906634,0.170956118655253,0.974629326301946,0.23590428044144676,-1.7877668041480193,-0.6769005534226626,9.943000000000001,7.322799999999999,-0.08011064767507933
2024-06-18 04:38:40.656024,0.24,-0.13154449458476153,0.16858172887606165,0.9720135341152775,0.20616189854801054,-1.6063576897337746,-0.834485373184599,9.940999999999999,7.200800000000001,-0.14320202193789983
2024-06-18 04:38:40.756865,0.34,-0.12890160073205553,0.16668758485209903,0.9730155962454894,-0.06136017067356751,-1.5501785520310432,-0.9526799686706117,9.898799999999998,7.085600000000001,-0.2219702975687469
2024-06-18 04:38:40.857851,0.44,-0.12582957451166854,0.1658599303581781,0.9733248038376097,-0.5676196579188095,-1.5698755553293975,-1.0172010918140386,9.8032,6.9628,-0.3101747307398699
2024-06-18 04:38:40.958898,0.54,-0.12394532626602309,0.1650482474855795,0.9738859425741799,-1.9625835611874751,-2.2741635387213126,-0.957323523587337,9.5592,6.756,-0.39650167017982907
2024-06-18 04:38:41.060215,0.64,-0.12089728748793113,0.16420867102826797,0.9740266386906573,-6.561592384555365,-3.424464415792643,-1.2002807259072987,8.8596,6.4652,-0.49050018635003967
2024-06-18 04:38:41.161456,0.74,-0.1177370166810185,0.1610010651462466,0.9790780941907731,-10.218787614637401,-2.3795257281696616,-1.3893099918851557,7.912000000000001,6.3031999999999995,-0.6151011759156548
2024-06-18 04:38:41.313134,0.86,-0.11097882408359228,0.14459153640861477,0.9924641368830627,-7.192851231370466,-0.7096480015711968,-0.8620030465327162,6.9421,6.2144,-0.7590338901329985
2024-06-18 04:38:41.464925,1.04,-0.105279649052661,0.12109688265632264,0.984265300640675,-4.130601285487593,-0.2329439039145423,-0.4951226366382137,6.3316,6.1524,-0.8348949676034614
2024-06-18 04:38:41.565971,1.14,-0.10411873820613374,0.10875755061905848,0.9837470893575766,-2.906398559207588,-0.0010848414306614388,-0.42430828949447374,6.057999999999999,6.138,-0.868376125438993
2024-06-18 04:38:41.667335,1.24,-0.10354159418147835,0.10167521477069444,0.9859477300118128,-1.9765417387152666,0.15397927975909184,-0.36563124746492437,5.8504000000000005,6.1378,-0.8944558537182974
2024-06-18 04:38:41.768454,1.34,-0.10298721523197192,0.09476818204751916,0.9873127363334385,-1.23037602552898,0.3926981843366658,-0.32324192676680236,5.6968000000000005,6.1592,-0.9172869018372726
2024-06-18 04:38:41.869573,1.44,-0.1031189143832009,0.08835025081595642,0.988124804691409,-0.5967863814199779,0.6855819389114064,-0.28022529812879104,5.586,6.2068,-0.9332671414386766
2024-06-18 04:38:41.970936,1.54,-0.10389513926198757,0.08350058524395512,0.988904222409705,-0.12781955033295794,0.988978834551762,-0.221468350530268,5.505599999999999,6.2826,-0.9469125525581619
2024-06-18 04:38:42.072055,1.64,-0.10463269073458994,0.0816181982079987,0.98903066175446,0.21438907049844885,1.278302196195215,-0.22375298014402972,5.4542,6.3852,-0.9558112931090876
2024-06-18 04:38:42.173176,1.74,-0.1063027961032251,0.08051262374105932,0.9889998512679796,0.5752402578945407,1.5339576716742407,-0.19667964075015604,5.437200000000001,6.510800000000001,-0.965090532897668
2024-06-18 04:38:42.325033,1.87,-0.11015214732308438,0.08072837753210692,0.9896131243812397,0.8328757666124735,1.7807520872562095,-0.05556246855033158,5.4505,6.7344,-0.9650382629659467
2024-06-18 04:38:42.476860,2.04,-0.11464913987917888,0.08283108702525453,0.9900331770732738,0.47077269537099015,1.879989080165246,0.14768834329579023,5.446,6.975399999999999,-0.9386305960743888
2024-06-18 04:38:42.578391,2.14,-0.11812525156069624,0.08546401841221815,0.9905988275767144,-0.5111364817299519,1.9383709906521573,0.16391660665032096,5.3452,7.144800000000001,-0.9097141192814956
2024-06-18 04:38:42.679384,2.24,-0.121858384294752,0.08755607397227945,0.9914558094821538,-1.9036432055779762,1.5955388852224104,0.13085923759917717,5.1308,7.268800000000001,-0.883886141570731
2024-06-18 04:38:42.780326,2.34,-0.12487170439918797,0.08726167843359851,0.9928037909890524,-3.946184899045778,-0.2435120046232731,0.20522942872332747,4.7304,7.2084,-0.8540686582610233
2024-06-18 04:38:42.881743,2.44,-0.1269516422311392,0.08404382227523276,0.9962449815297504,-5.599687182008884,-1.3908395332093892,0.2582881217092271,4.207,7.0816,-0.8191929763593133
2024-06-18 04:38:42.982693,2.54,-0.12703652158173923,0.07772347369533775,1.0039117346205289,-5.184002687786362,-1.0051314960110187,0.42867337322975185,3.7504000000000004,6.9958,-0.7719815599249005
2024-06-18 04:38:43.084109,2.64,-0.1251949345961023,0.06834355289762992,1.0053190671244958,-3.742073695367573,-0.9325035869415034,0.8047265456369376,3.4232,6.9030000000000005,-0.6951176981775344
2024-06-18 04:38:43.185094,2.74,-0.12178324720725883,0.05703344505354459,0.996115750282701,-2.0763457914072343,-0.5891259462214491,1.1375009007309316,3.2332,6.8432,-0.5819619124646487
2024-06-18 04:38:43.336896,2.88,-0.1176929348795684,0.04479283138316364,0.9850745922773241,-1.38006745760784,-0.5911386891358661,1.2128248014264889,2.9825,6.740399999999999,-0.37698210167207347
2024-06-18 04:38:43.488570,3.04,-0.11695224166459237,0.03952255199371012,0.990642957471146,-1.72284563576607,-0.21119340301561226,0.939044555135055,2.6728,6.6846000000000005,-0.19669246183666766
2024-06-18 04:38:43.589816,3.14,-0.1164036408081576,0.03710101132756074,0.9916263254889437,-1.80811062117797,0.3862355931047835,0.6712682573602617,2.4578,6.722200000000001,-0.10668886193735796
2024-06-18 04:38:43.691011,3.24,-0.11554437624345479,0.034624382352617424,0.99056095416967,-1.8070823325376473,0.8637945048634519,0.561833469616011,2.2497999999999996,6.7976,-0.03524153380605314
2024-06-18 04:38:43.792296,3.34,-0.11550050968037084,0.03215761943002688,0.9902316539058426,-2.607144683941739,0.501356531663619,0.58321402174906,1.9592000000000003,6.821,0.03318855606376738
2024-06-18 04:38:43.893414,3.44,-0.11696762092220662,0.02976666110045912,0.9910017471197812,-4.702617624536694,-0.9713967585551824,0.7834187241548707,1.4706,6.6982,0.11420305413655366
2024-06-18 04:38:43.994657,3.54,-0.11778306362072848,0.025257270532679222,0.9918792755263173,-7.697486690280845,-2.4165242382131495,0.8574725535427419,0.7206,6.469800000000001,0.212365792769722
2024-06-18 04:38:44.095899,3.64,-0.11623448488765595,0.016579624629629,0.998037376229331,-8.815571686896153,-1.2214920985373983,0.8938281534857039,-0.07859999999999999,6.3864,0.31006660137698144
2024-06-18 04:38:44.197272,3.74,-0.1136330161533639,0.00438930678083562,1.008682020081135,-7.281660819998855,-0.23839133912505722,1.2680013272575192,-0.7132,6.3616,0.4314856545849137
2024-06-18 04:38:44.348733,3.89,-0.1098144790570724,-0.01475014640629796,1.01150021760379,-4.444723449625949,-0.6766335723567816,2.1008556122788264,-1.3391000000000002,6.254199999999999,0.7211287616281536
2024-06-18 04:38:44.500617,4.04,-0.10481412840843651,-0.03351641588240954,1.001041398992745,-1.9648229277554399,-1.6306325794186236,2.4776194651325993,-1.6966,6.0248,1.0921376897305546
2024-06-18 04:38:44.601740,4.14,-0.10265036217373982,-0.04128599608801626,0.9991700034907666,-0.40048764809212967,-1.9565022683173787,2.213224703514747,-1.7677999999999998,5.8268,1.3393449064331686
2024-06-18 04:38:44.702978,4.24,-0.10065433236600638,-0.045563091019370915,0.999381392386945,0.9729243712684061,-2.272243675479312,2.005633308793662,-1.7242000000000002,5.602200000000001,1.5575049011160018
2024-06-18 04:38:44.804224,4.34,-0.09828394781610839,-0.04695511237942698,1.00027834607729,2.307175729403909,-2.6175231826037995,1.827864661726285,-1.5648,5.3506,1.7610341028227119
2024-06-18 04:38:44.905342,4.44,-0.09434031368442554,-0.045903953002155676,1.002519555368918,2.996685882579573,-2.459685200599241,1.6231638333187035,-1.361,5.118799999999999,1.9442529086134575
2024-06-18 04:38:45.006329,4.54,-0.09075389863893693,-0.04210180720238148,1.0135418522804427,2.63821312179567,-2.164953562364243,0.26601139925154255,-1.206,4.9092,2.0543017711118328
2024-06-18 04:38:45.107451,4.64,-0.08684979615228858,-0.03721239540807231,1.021759633550082,2.265970659962932,-2.4679993010276555,-1.7892549151802029,-1.0737999999999999,4.6626,1.9600285453631152
2024-06-18 04:38:45.208568,4.74,-0.08325956065432626,-0.033219551292610214,1.0151505564400274,4.049670997751174,-1.578626923092993,-1.8614781284245816,-0.7500000000000001,4.529599999999999,1.7720081212085552
2024-06-18 04:38:45.360616,4.91,-0.07545453343311705,-0.024625081839562517,0.9803720916498802,5.472654018099382,-0.014064243254865133,-0.5054120359017005,-0.09670000000000002,4.5069,1.643532930782034
2024-06-18 04:38:45.512540,5.04,-0.07179102242879683,-0.01073694550202206,0.9811540879534999,6.073440146743911,0.5660211604733683,0.3072850947399136,0.6556000000000001,4.5405999999999995,1.6560135180625928
2024-06-18 04:38:45.613652,5.14,-0.07260135546261778,0.00028476510495145993,0.9879370487946506,6.714182418696064,0.9085164458507247,0.5913837870295937,1.2491999999999999,4.6012,1.716910230499882
2024-06-18 04:38:45.715148,5.24,-0.07356118210926586,0.00886028461778264,0.9899765867593777,6.644121617079433,1.4310093536911181,0.7959680269261687,1.827,4.712400000000001,1.8013720592255058
2024-06-18 04:38:45.816140,5.34,-0.07547318859853044,0.01925068517421108,0.9925771042700283,5.012129495988484,2.468947036613695,0.8449284354644867,2.2334,4.928,1.8986265543132486
2024-06-18 04:38:45.917383,5.44,-0.07897447004004272,0.02943784313504418,0.9974653202245761,1.6829294836489577,3.8541710879888256,0.5925343735831815,2.3338,5.260599999999999,1.979480462060805
2024-06-18 04:38:46.018750,5.54,-0.0852974314681835,0.0387872547920961,1.012506562507498,0.13542487048817092,3.219162536248942,0.8372675285140609,2.3628,5.505000000000001,2.0619009382402536
2024-06-18 04:38:46.119747,5.64,-0.09269900988241618,0.044406783284141535,1.0261462601125522,0.7709473679240182,2.093058068943033,0.716581569588935,2.4712,5.6698,2.1580977680736
2024-06-18 04:38:46.221089,5.74,-0.0971051729634133,0.04645372057750648,1.027615015574053,1.9443625651746366,1.0635186064715842,0.3032313300222399,2.6870000000000003,5.7332,2.2147018192030203
2024-06-18 04:38:46.372978,5.92,-0.10051137374463975,0.04918659182730278,1.0131963917937665,3.583846462260958,-0.32544302585932183,-0.28228542786770816,3.1788,5.6783,2.222406793577661
2024-06-18 04:38:46.524791,6.04,-0.10133170105634517,0.05569377228065205,0.9994429305902612,6.437755679041096,-0.35336033572890563,-0.15246858724678788,4.0144,5.6373999999999995,2.191286814550254
2024-06-18 04:38:46.625829,6.14,-0.0992699156668244,0.06060905152684436,0.9785248826044564,7.263486031932359,0.22162935398703915,0.45015637740124903,4.6894,5.6706,2.2242564226536765
2024-06-18 04:38:46.727202,6.24,-0.09720405234736676,0.06929208945573194,0.9593577986966564,7.447361249897888,0.9205422489796062,0.7785263965179589,5.3724,5.7703999999999995,2.3042486094431633
2024-06-18 04:38:46.828211,6.34,-0.09830608258309281,0.08270619407174465,0.9708297819996512,7.470528050622764,1.5449468885122293,0.9728255156783362,6.060999999999999,5.914399999999999,2.4055353555832313
2024-06-18 04:38:46.929626,6.44,-0.10083069761350565,0.0962990438540412,0.977865521808859,7.319236826153057,1.5647198804984925,1.2305261127117126,6.7368,6.0412,2.5306802314379184
2024-06-18 04:38:47.030745,6.54,-0.10337959734214393,0.1096699289817455,0.9820219404596309,7.156834259421238,-0.2484661161966002,1.5178779010165648,7.4152000000000005,5.961399999999999,2.6812306160101307
2024-06-18 04:38:47.132067,6.64,-0.10453475337082181,0.12078451837482937,0.9819071867529482,8.163830773859635,-2.3555607467954878,1.7076151072419168,8.1968,5.7298,2.8657735109929616
2024-06-18 04:38:47.233230,6.74,-0.10371559778618897,0.13547342951280722,0.9846690868337467,7.411530608477652,3.401035940204627,-0.5918005082672654,8.8722,6.1728000000000005,2.9305866482436
2024-06-18 04:38:47.385094,6.93,-0.10606648858515633,0.15848876690862068,0.9991335216150045,6.905318471678522,7.64068828850434,-2.443573486698914,9.8642,7.2503,2.6271067801869856
2024-06-18 04:38:47.536961,7.04,-0.1250592356557389,0.17714070045423697,0.9628078352313107,2.4162135640647286,4.203490025727482,-2.106770355509159,10.342000000000002,7.9298,2.301759143275381
2024-06-18 04:38:47.638202,7.14,-0.13559965344102182,0.18559288581563393,0.9492868255493196,-0.949723803514513,2.022285234745092,-1.854898502621745,10.2842,8.1472,2.1173758101326525
2024-06-18 04:38:47.739621,7.24,-0.14427081881269485,0.19114246330043205,0.953640043746512,-4.167180797315543,0.12111864513122277,-1.6423615478520137,9.9412,8.2042,1.9588999760192656
2024-06-18 04:38:47.840806,7.34,-0.14705601298652374,0.18670268536324067,0.9565519551913774,-7.013396037600292,-1.3026794848287568,-1.7267289175756322,9.331999999999999,8.1352,1.8039415268152108
2024-06-18 04:38:47.942179,7.44,-0.14704338439826423,0.17712529387993226,0.9596842750851955,-9.013113852216515,-2.2277354066749226,-1.9929239168136264,8.5332,7.986599999999998,1.6279177099604525
2024-06-18 04:38:48.043243,7.54,-0.1451912813364357,0.16601258679363268,0.9655237374693397,-9.991844742408858,-2.8801727778595376,-2.157576666303561,7.6486,7.7712,1.427761339604967
2024-06-18 04:38:48.144538,7.64,-0.14262961845370917,0.15100542701223316,0.9731072402603569,-10.081993260649416,-3.505250516314164,-1.7223591582549411,6.7646,7.489400000000001,1.2459494234144164
2024-06-18 04:38:48.245777,7.74,-0.13937189242915274,0.13466651158973622,0.9800122283575174,-9.58335648672495,-3.9724820032849366,-1.061473532803389,5.9336,7.1616,1.1259119679409344
2024-06-18 04:38:48.397763,7.94,-0.13039197920709017,0.1096787566261255,0.9885933560724114,-7.707566251727881,-3.8449338560810262,-0.5419064116768386,4.904599999999999,6.6731,1.0362899338763478
2024-06-18 04:38:48.550004,8.1,-0.12031643036765267,0.0851154078209433,0.9940156022082638,-5.169093139859573,-2.64892795189444,-0.14314812365248128,4.134200000000001,6.3024000000000004,1.0072034621004153
2024-06-18 04:38:48.650993,8.2,-0.11331646209756499,0.06907857445869467,0.9950984009778274,-3.8745013801241415,-1.5698629330268896,-0.1144399580662198,3.7462000000000004,6.168,1.0076879275945925
2024-06-18 04:38:48.752239,8.3,-0.10752678204134727,0.05622799267675864,0.9947581253636087,-3.0180129149154853,-0.9240908061013394,-0.0665461848836808,3.4107999999999996,6.0754,1.0103039102907752
2024-06-18 04:38:48.853283,8.4,-0.10366116876592531,0.0464151243903249,0.9938959289210197,-2.2021095426946067,-0.6616683067625677,0.0719972264294913,3.1398,5.9988,1.0241126685682906
2024-06-18 04:38:48.954533,8.5,-0.10121520918049025,0.04139758691505112,0.9930825481597951,-1.2742360495300136,-0.5771518611312859,0.1435128205286189,2.957,5.9216,1.0483585978917391
2024-06-18 04:38:49.055892,8.6,-0.09911082609361835,0.039626088669035095,0.9923689958568996,-0.1858696759983555,-0.6644063551223007,0.30023228215160336,2.8863999999999996,5.828799999999999,1.082468614590196
2024-06-18 04:38:49.157014,8.7,-0.0966322960007012,0.03851483992052843,0.9919670201001143,0.7717710159162239,-0.6602913671206206,0.4820569227087578,2.9082,5.7344,1.1365009889313256
2024-06-18 04:38:49.258152,8.8,-0.09415658735577799,0.03849690701905294,0.9930360182448588,0.38264209170282887,-0.24953927257118083,0.7070837022174801,2.876,5.679,1.2094844473292112
2024-06-18 04:38:49.359440,8.91,-0.09210929963593158,0.0399688120764647,0.996111103605579,-1.16378133990376,0.20341820273902553,1.008434671780916,2.7131999999999996,5.6606000000000005,1.3112504555004223
2024-06-18 04:38:49.460681,8.94,-0.09271327393746939,0.040783054443810064,0.9998914195039548,-1.622911631747365,0.3452331943229724,1.208596049355162,2.5389999999999997,5.6544,1.4363681127756416
2024-06-18 04:38:49.562059,9.04,-0.09424201469118529,0.03923445148300349,1.0005808197191048,-1.7568241088139938,0.5222220250276721,1.2807659232835997,2.3498,5.6754,1.5754808830282596
2024-06-18 04:38:49.663287,9.14,-0.09591757619423384,0.0353636856231314,0.9991350044622351,-2.325161470244694,0.6977658101928031,1.1688186132503102,2.1,5.7214,1.7101838304957635
2024-06-18 04:38:49.764412,9.24,-0.09782310768107982,0.0300713151107664,0.9971770090299348,-3.0601283446758645,0.8406300436340886,1.0427813230521745,1.7816000000000003,5.792,1.8306817075601063
2024-06-18 04:38:49.865903,9.34,-0.10002370275188759,0.024758124567093844,0.9949747732486648,-3.5964034142554553,1.2812692061044266,1.0370220612962822,1.4112,5.9182,1.9462655222600098
2024-06-18 04:38:49.966893,9.44,-0.10160844336865744,0.01867286144629118,0.9934378294449641,-4.503515565536621,1.990124991646186,1.1185975100377639,0.9471999999999999,6.1064,2.0661422029006262
2024-06-18 04:38:50.068134,9.54,-0.10327040809701864,0.01131149855388236,0.9947302474899435,-6.043369355095549,2.284246749453067,1.2428832275119626,0.3382,6.3082,2.1979782077561882
2024-06-18 04:38:50.169378,9.64,-0.10576412547218661,0.0030230954057264598,0.9982101914925776,-7.4865714788139215,1.986879708557846,1.302351008624464,-0.3856,6.4744,2.338369854094267
2024-06-18 04:38:50.321243,9.87,-0.10992664002173176,-0.01213570257234898,1.004173444354453,-7.710077932012176,1.2132090040326178,1.5394891656864078,-1.4697,6.6253,2.569749165515865
2024-06-18 04:38:50.472982,9.94,-0.11182538968860209,-0.028867557962656935,1.0068989103624737,-6.187513223197948,0.2294227564255261,2.081677781884144,-2.357,6.6516,2.8567276053771655
2024-06-18 04:38:50.574114,10.04,-0.1120323797112516,-0.04153979232187334,1.0088299724609378,-4.632260953529679,-0.31251551618886014,2.478869134735593,-2.7645999999999997,6.5964,3.102032931650423
2024-06-18 04:38:50.675730,10.14,-0.11157884551890188,-0.05304257022665916,1.005869581398602,-2.5458769091094693,-0.9754755677802335,2.838525514391577,-2.98,6.4856,3.382542441165447
2024-06-18 04:38:50.776833,10.24,-0.11071959729298098,-0.0613373028426429,0.9986974274426814,-0.20099118443971595,-1.593306403646163,3.2744124215677766,-2.9991999999999996,6.3274,3.705773829574629
2024-06-18 04:38:50.878073,10.34,-0.10906938665663579,-0.06739488754530341,0.9912466447764903,1.9986102549853118,-1.7527123863608156,3.536928040752561,-2.8366,6.1738,4.062240594673626
2024-06-18 04:38:50.979194,10.44,-0.10664508225520333,-0.07048942964522557,0.9807423163885467,4.451672818907626,-1.0954154902636817,3.5645625187781724,-2.4718000000000004,6.0942,4.43153846246952
2024-06-18 04:38:51.080432,10.54,-0.10528789594170729,-0.069310780321792,0.9715151337187949,6.788427970267032,-0.4033772215643787,3.529895453652513,-1.9177999999999997,6.084,4.798420931435213
2024-06-18 04:38:51.181553,10.64,-0.10665096181883231,-0.062403124381520916,0.9731320549111449,8.324569249947253,0.44211057865598846,3.540416341890947,-1.2459999999999998,6.167399999999999,5.1621759992610965
2024-06-18 04:38:51.333662,10.88,-0.11012127695045434,-0.04406793196048124,0.9863922621805344,8.619501154805477,1.8163220357420728,3.7006355576833725,-0.1734,6.452,5.731369066492293
2024-06-18 04:38:51.485650,10.94,-0.11259770190330425,-0.01665394686265484,0.995865575444952,8.381206323204315,2.5958965829643463,3.470392260174126,0.9349999999999999,6.805199999999999,6.292378970049723
2024-06-18 04:38:51.586776,11.04,-0.11427413657982577,0.0032614864940699604,0.9972220903824083,8.429394719536138,2.8620773298173567,3.2963003394878507,1.7231999999999998,7.053200000000001,6.639358454968699
2024-06-18 04:38:51.688088,11.14,-0.11591785870310503,0.022165752707619103,0.9948960462570137,8.57252769106087,2.9458688325986193,3.2794963878083303,2.5436,7.286199999999999,6.980129506997159
2024-06-18 04:38:51.789209,11.24,-0.11810581886813669,0.03684904975506614,0.991529091052257,7.992856171893547,2.2536907680003813,3.1824277451889684,3.313,7.4346000000000005,7.315712918204232
2024-06-18 04:38:51.890745,11.34,-0.12449259668380344,0.051045638774401436,0.9891729159185478,7.162282899546897,0.9298847529271665,2.967113932805819,4.012,7.4714,7.634081364393898
2024-06-18 04:38:51.991745,11.44,-0.13136101111330775,0.06560618758629036,0.9874273174751762,6.164819079143535,-0.8275592952980695,2.8132991652759642,4.6158,7.3646,7.93171226447177
2024-06-18 04:38:52.093061,11.54,-0.13449985896156505,0.07803494196389235,0.9893265410271509,4.378522942513117,-1.7182805975839384,2.776027462341065,5.054,7.2086,8.223132429930919
2024-06-18 04:38:52.194351,11.64,-0.13456408172563272,0.08611586692507,0.9947811202137202,2.79959910130019,-1.9518104068710997,2.876386633565766,5.3512,7.0348,8.51743337652891
2024-06-18 04:38:52.346252,11.89,-0.129787716169026,0.09608743708512388,1.0047246718006297,0.07333274089525765,-1.7327768120487668,3.069752336148498,5.456600000000001,6.788600000000001,8.987061084205687
2024-06-18 04:38:52.498080,11.94,-0.12141742394942774,0.10067472855463036,0.9979759511773596,-2.329892111966173,-1.0184507997687362,3.0216287995930564,5.2728,6.6098,9.467236969810102
2024-06-18 04:38:52.599444,12.04,-0.11553806789741758,0.09927078421323574,0.9854550787950451,-2.6693903603031024,-0.2723886201003494,2.6972826756800186,5.095599999999999,6.566800000000001,9.764082781667506
2024-06-18 04:38:52.700641,12.14,-0.11196660276427017,0.0973802729388436,0.9757968311866942,-3.1867392526163125,0.2480276271939398,2.3224679026141546,4.8728,6.5676000000000005,10.02170778206997
2024-06-18 04:38:52.801928,12.24,-0.11031884159278711,0.0955072626739226,0.9708084883869681,-3.3480714488904404,0.7043853408233829,2.175241681641908,4.6546,6.613200000000001,10.25591044474155
2024-06-18 04:38:52.903169,12.34,-0.11175741540325423,0.09207803331032553,0.9796450612715976,-2.677830958636465,1.3413806611987986,2.0134954769359448,4.502000000000001,6.7188,10.47750596133638
2024-06-18 04:38:53.004367,12.44,-0.11286667995261568,0.08648221907070355,0.9852711042214478,-1.8972944507831015,1.6713389165082524,1.6852603160259423,4.3982,6.847799999999999,10.670992784680077
2024-06-18 04:38:53.105779,12.54,-0.11552392557280042,0.08053835114062118,0.9903950277389724,-1.4854062603651998,1.6322705056668627,1.5614519458560632,4.3068,6.9702,10.84398873595841
2024-06-18 04:38:53.206897,12.64,-0.11856185362369201,0.07592120010251249,0.9942808014536823,-1.2018409833068948,1.431027331304667,1.4358863245897406,4.2184,7.078,11.004026985389643
2024-06-18 04:38:53.358802,12.91,-0.12351005770730614,0.06844794654668304,0.9969025777702953,-0.4517134727275739,1.0741788156492782,1.4739613354875893,4.141299999999999,7.2095,11.237618687231134
2024-06-18 04:38:53.510622,12.94,-0.1250906431507211,0.06508678682345627,0.9939505529820316,0.6976761848261981,1.2437299715974979,1.4810956935076203,4.1976,7.3586,11.482811160233595
2024-06-18 04:38:53.611992,13.04,-0.12499825485437359,0.06623433703676329,0.9903105069784571,1.7302675257954419,1.6987352182799804,1.3393270188322934,4.3668,7.4982,11.633295900425626
2024-06-18 04:38:53.713230,13.14,-0.12499755717462317,0.06908246463623662,0.9853453994538878,3.0505983678197373,1.7885535338300467,1.3868549507706558,4.667,7.6274,11.780763212804592
2024-06-18 04:38:53.814350,13.24,-0.12553342952019744,0.07337788159922004,0.9809830046256606,4.7322585716071375,1.250360365035057,1.697678003006682,5.13,7.6942,11.948528698370778
2024-06-18 04:38:53.915599,13.34,-0.1287326453414354,0.08240377335418766,0.9801299061351576,6.2079993513907095,0.44143219783375776,1.8908957490547862,5.7348,7.6898,12.144700540839274
2024-06-18 04:38:54.016712,13.44,-0.1321731330668029,0.09248111977928263,0.982259830181982,7.126537472749125,-0.03628081492672272,1.8160193326156868,6.4178,7.654400000000001,12.342975684229126
2024-06-18 04:38:54.117955,13.54,-0.1339962443306422,0.10137132707571979,0.9848068236179135,7.593397648086129,-0.11374389159964349,1.6845814900121368,7.1331999999999995,7.6248000000000005,12.528152449744061
2024-06-18 04:38:54.219151,13.64,-0.1355567595085916,0.11312119183812577,0.9873221869743306,7.897468068805301,0.01885659328382482,1.7867098575535774,7.874199999999999,7.6168000000000005,12.712463620767057
2024-06-18 04:38:54.371121,13.92,-0.13697667142418646,0.13310229326453682,0.9858627380051852,8.345512763007608,0.3014206092652163,2.217179825899793,9.0489,7.6383,13.039358869485795
2024-06-18 04:38:54.522908,13.94,-0.13627577271458344,0.15522404846023358,0.98006362362172,8.42518827940674,0.370685765245959,2.509052330131703,10.2526,7.655199999999999,13.415651282833437
2024-06-18 04:38:54.624221,14.04,-0.13569950499232553,0.16855271025524213,0.9766969197567104,8.196872070533809,-0.01600137274976096,2.5734623370558625,11.0466,7.610000000000001,13.683150989655962
2024-06-18 04:38:54.725463,14.14,-0.13420545454367358,0.18579080829365066,0.9731409677430397,7.866518170875328,-0.6633541537012312,2.629962910362371,11.821200000000001,7.490399999999999,13.955819804603987
2024-06-18 04:38:54.826585,14.24,-0.13168268246749182,0.20325473319227183,0.9708978921656686,7.653785560658366,-1.3969222175707157,2.813920810348187,12.5996,7.2966,14.240457281927908
2024-06-18 04:38:54.928015,14.34,-0.12925011114579443,0.21934264870369735,0.970043652189147,7.911117338184274,-1.8880939490023572,3.0513694473555275,13.421199999999999,7.055,14.549128481269793
2024-06-18 04:38:55.029381,14.44,-0.12710690077111386,0.23421670022456373,0.9693726240147992,8.524592955382115,-1.981573576622162,3.2258375356326914,14.3136,6.806,14.877205417282704
2024-06-18 04:38:55.130501,14.54,-0.12463166358892866,0.25115587036622067,0.9668522389872036,8.659508498915324,-1.6646770264515518,3.2065858066296142,15.209800000000001,6.5952,15.21209392068
2024-06-18 04:38:55.231576,14.64,-0.12189588235335425,0.2668474029340621,0.9621026254504542,7.863428868101091,-1.1055468450950146,3.14865869655749,16.019799999999996,6.441,15.542880403639126
2024-06-18 04:38:55.383418,14.93,-0.11643530478976208,0.2872699888661887,0.9524244291479853,5.958401411782276,-0.5410250869603377,2.6464849870985736,16.9987,6.2793,15.98775913454226
2024-06-18 04:38:55.535470,14.94,-0.11084361912011002,0.3080934139775262,0.9454798520856935,4.866033127238738,-0.5030397515880338,2.3231015047362953,17.878800000000002,6.1095999999999995,16.3729218782901
2024-06-18 04:38:55.636463,15.04,-0.10671880603859658,0.3213489819970376,0.9438720477233666,4.649495565452697,-0.8228043806618113,2.356520313525264,18.4432,5.9474,16.618095981658495
2024-06-18 04:38:55.737782,15.14,-0.10337732888972433,0.3291276609790773,0.9447521736867472,4.309483927020212,-1.0883253623406692,2.383037433654072,18.953599999999998,5.7574,16.869682385747836
2024-06-18 04:38:55.839197,15.24,-0.10173245047765973,0.3349634018135353,0.946905024802469,3.5809799494479364,-0.9877870636975986,2.1254949815961175,19.3668,5.5934,17.10635651409748
2024-06-18 04:38:55.940438,15.34,-0.10017472133285274,0.34127499043034454,0.9470443770380701,2.680673880596557,-0.5477427816269059,1.765607712314332,19.6834,5.4874,17.31019582992439
2024-06-18 04:38:56.041681,15.44,-0.09873878930162877,0.34584839241584997,0.9451955318009695,2.0700774235857424,0.0255411901395055,1.316544945462328,19.9406,5.4474,17.471887805540092
2024-06-18 04:38:56.142797,15.54,-0.09751057637664196,0.3494679151534628,0.9417829646025091,1.3885135227740943,0.605846115040772,0.9220149838669871,20.125799999999998,5.474200000000001,17.591886957965244
2024-06-18 04:38:56.244163,15.64,-0.09671143451405642,0.35160298889946445,0.9378681432905991,0.49968290501140833,1.0995927516594088,0.5068661723434563,20.2246,5.5526,17.670931112909088
2024-06-18 04:38:56.396029,15.94,-0.0960045057364984,0.35257735397270484,0.9337691217666646,-1.0777667854818844,1.1745553712378398,0.40153983833249995,20.1661,5.6684,17.748299782958895
2024-06-18 04:38:56.547892,16.09,-0.09660158186234184,0.34895905482478384,0.9312945245424589,-3.6136056401428767,1.1838685081359988,0.4294250676485493,19.7894,5.7794,17.83224756791952
2024-06-18 04:38:56.649133,16.2,-0.09872620452760297,0.34090585036710447,0.9318047908950418,-6.354529177296251,1.5208878262058234,0.10120834292928933,19.1942,5.9028,17.869951888761562
2024-06-18 04:38:56.750502,16.3,-0.10184174632177392,0.3275642699057092,0.934325262973666,-9.308140330915089,1.8946100033418982,-0.19845528482792935,18.309,6.069999999999999,17.87218767499622
2024-06-18 04:38:56.851742,16.4,-0.10410518426764721,0.31268666489578545,0.9382059444920406,-11.259959993549948,2.0977804602266366,-0.2529026734223204,17.243599999999997,6.2578000000000005,17.859952443775576
2024-06-18 04:38:56.952986,16.5,-0.10637502362701881,0.3002240435377535,0.9435166017287155,-11.616219822364886,2.043023456067714,-0.17830553191241208,16.1772,6.4354,17.849950905160778
2024-06-18 04:38:57.054352,16.6,-0.10890717442819667,0.2868316184714363,0.9500545884958458,-10.941090261704174,1.8194568107917335,-0.040766100885356406,15.195599999999999,6.5834,17.852763235747357
2024-06-18 04:38:57.155344,16.7,-0.11137778933864542,0.27111595872962435,0.9562486786225628,-10.029111546387384,1.575687238172776,0.2118590228286925,14.304600000000002,6.7006,17.875705420090547
2024-06-18 04:38:57.256709,16.8,-0.11359245363090156,0.2552748969758033,0.9608129891241711,-9.597391122922705,1.4185000102655567,0.2991962898860351,13.4304,6.807599999999999,17.916215701919715
2024-06-18 04:38:57.459322,16.84,-0.12021368109892246,0.21321701766739803,0.9682200134110109,-10.412325222285252,1.5768950429066906,0.14394902458838515,11.483,7.074600000000001,17.984781369183757
2024-06-18 04:38:57.357829,16.9,-0.11677366075290796,0.235310873003167,0.9647108416617026,-9.828235036547381,1.4549468694914707,0.23099432689030253,12.4994,6.929600000000001,17.954442999372674
2024-06-18 04:38:57.560564,16.94,-0.12414999557288309,0.19202709869074197,0.9709492051700256,-10.77744446153389,1.6973741415432113,0.09094192730734836,10.4222,7.242400000000001,18.008086837713094
2024-06-18 04:38:57.661683,17.04,-0.12786857006125704,0.17152572435957236,0.9746476019171778,-10.474929511179536,1.9202427751974305,0.10214347255619705,9.391200000000001,7.4368,18.027916881326565
2024-06-18 04:38:57.762917,17.14,-0.130487254863004,0.15457507597127415,0.9784960470360587,-9.617673456012326,2.1480116997182845,0.26869472979675507,8.4382,7.6474,18.06049615464874
2024-06-18 04:38:57.864412,17.24,-0.13280353473096054,0.13732403761476958,0.9808470600487442,-8.486926884054848,2.1867066542495874,0.3485508518712198,7.586000000000001,7.849200000000001,18.105083872453054
2024-06-18 04:38:57.966784,17.34,-0.13462057484310616,0.12149058193990872,0.983207971348649,-7.286290378284034,1.911221022272067,0.4648869093355593,6.840999999999999,8.0124,18.15871914453986
2024-06-18 04:38:58.069272,17.44,-0.13567459489499756,0.10772725614416001,0.9841070791349565,-6.042013133650845,1.3625077366535763,0.5754643550556771,6.2176,8.108799999999999,18.224236736056827
2024-06-18 04:38:58.171269,17.54,-0.13603739277967247,0.0959261776237415,0.9844357572677837,-4.67124847080091,0.6228612232508779,0.7048594986388401,5.726000000000001,8.1274,18.301010257981495
2024-06-18 04:38:58.477244,17.84,-0.1377941172967589,0.07163639718565068,0.9875441696439655,-0.2152135284598097,-0.8433772636191449,1.1068999086928382,5.0568,7.879599999999999,18.60377684089978
2024-06-18 04:38:58.324194,17.87,-0.13664009543104816,0.08183101381776903,0.985674416738322,-2.428019810941918,-0.3559044712819562,0.8619632215657245,5.2608999999999995,8.029,18.442491444891978
2024-06-18 04:38:58.579360,17.94,-0.13863611403508364,0.06731852978309358,0.988072892564381,0.9165833843005903,-0.7637697142513712,1.3804140839845054,5.0646,7.7982,18.74345140993848
2024-06-18 04:38:58.681605,18.04,-0.13903604463439262,0.06499918905748321,0.9875830994611835,1.7606007224839906,-0.5421418499902771,1.692744682521719,5.143000000000001,7.746400000000001,18.912214417132358
2024-06-18 04:38:58.783944,18.14,-0.13900705582992817,0.06447303753081664,0.9864628468384771,2.369918771564481,-0.3543049527544157,1.7734404447901493,5.2742,7.7176,19.100788951363903
2024-06-18 04:38:58.886339,18.24,-0.13894932753106248,0.06615300440415024,0.9850034086273805,2.9550994616595667,-0.29881766830698375,1.7701069152481665,5.4601999999999995,7.695399999999999,19.29011064595391
2024-06-18 04:38:58.988704,18.34,-0.13822053548785126,0.06993021858574913,0.9842115087846736,3.5072854085847056,-0.3140632096366939,1.758773389495182,5.7044,7.6684,19.478991885511373
2024-06-18 04:38:59.090505,18.44,-0.13676256867314684,0.07598492996259522,0.985165863822157,4.032137420216833,-0.2891963793191132,1.6249425542213962,6.0058,7.6415999999999995,19.660267459499853
2024-06-18 04:38:59.192867,18.54,-0.13508389417169792,0.08351271007925407,0.9877566765778016,4.605335866856892,-0.16219699758318779,1.45082018477524,6.373600000000001,7.619,19.82393621389796
2024-06-18 04:38:59.499998,18.84,-0.12826095615619088,0.11393448494785789,0.9900861423486716,6.37826880588527,-0.4793960971092246,1.478040373352307,7.906000000000001,7.4534,20.300848451035144
2024-06-18 04:38:59.346470,18.89,-0.13192548735271692,0.09800573933869443,0.9906102708151836,5.55833620483452,-0.07036309032572306,1.476671812395396,7.0741,7.5703000000000005,20.05906132673358
2024-06-18 04:38:59.602286,18.94,-0.12670711210794441,0.12500302961890583,0.9869648039068128,6.755269438165979,-0.9362300388485394,1.4645320368395431,8.5294,7.3152,20.46144467157243
2024-06-18 04:38:59.704527,19.04,-0.12508798456380016,0.13872203961141966,0.9827175902821823,6.958173377391974,-1.1929481979704466,1.2972737077044683,9.183,7.158799999999999,20.611012407693032
2024-06-18 04:38:59.806770,19.14,-0.12369958507228848,0.1522516956188445,0.9791130792594711,6.8795184425271545,-1.1389118158315958,1.1644104801893327,9.838399999999998,7.0194,20.743848308866887
2024-06-18 04:38:59.909262,19.24,-0.12273971347508264,0.16432662471296278,0.9767666523225307,6.640633669488291,-0.8385508648498421,1.1554881415986913,10.475999999999999,6.917199999999999,20.87098084660858
2024-06-18 04:39:00.011217,19.34,-0.12116248054530818,0.17457378873849144,0.9751693035716036,6.480471780031816,-0.5590586955027981,1.0232462920730945,11.0928,6.844200000000001,20.992805993255747
2024-06-18 04:39:00.113376,19.44,-0.12017612896324548,0.1852572777108416,0.9749403164941672,6.373956250976552,-0.5319906489237288,0.8503000838402631,11.693000000000001,6.7742,21.097608891562704
2024-06-18 04:39:00.215748,19.54,-0.11953952888584307,0.19440363961378626,0.9750007823676883,6.1350657008034855,-0.7529414512704213,0.6033222825826268,12.2684,6.683400000000001,21.179393421790728
2024-06-18 04:39:00.522223,19.84,-0.11513655078816261,0.22727030429159445,0.9692195000091118,3.9912500797841775,-0.7277351262146183,-0.13997743148790615,13.6184,6.418000000000001,21.303451018882004
2024-06-18 04:39:00.369179,19.92,-0.1176254747541523,0.2110470395510778,0.973507128162503,5.261927586288875,-1.0371982305395329,0.3551997179173628,13.015500000000001,6.525399999999999,21.269814218323
2024-06-18 04:39:00.624328,19.94,-0.11417722626223073,0.23600964249983555,0.9658294494303892,3.1521918690750477,-0.263113489051917,-0.3925319800919156,13.932400000000001,6.4096,21.286208640914207
2024-06-18 04:39:00.726578,20.04,-0.11354017103446341,0.2426006552571715,0.9635817766659731,2.531867518415591,0.10774382783701456,-0.6032194922079153,14.203999999999999,6.4398,21.245914461959654
2024-06-18 04:39:00.828523,20.14,-0.11272478926883282,0.2499755250535783,0.9616912250751003,2.17278959352647,0.269029479245945,-0.7784971876796325,14.450799999999997,6.482000000000001,21.18733619610952
2024-06-18 04:39:00.930685,20.24,-0.11188637549051787,0.25557071126924924,0.9611261580891635,1.8837949343018252,0.17002942639316826,-0.9505914296508484,14.6734,6.509600000000001,21.111126976098546
2024-06-18 04:39:01.032805,20.34,-0.11109363872954617,0.2596687138595394,0.961865509480902,1.5314348673085263,-0.03040747619695462,-1.098353859141496,14.856,6.5146,21.01954526750124
2024-06-18 04:39:01.134919,20.44,-0.11097844552612876,0.2616720783493124,0.9620250637598227,1.0319551951765482,-0.19974761680533662,-1.2898280944650806,14.978399999999999,6.5040000000000004,20.910738175121228
2024-06-18 04:39:01.237300,20.54,-0.11160034657440485,0.2620725961888739,0.9614004964476879,0.32026899727080593,-0.25397205209319396,-1.4786946036860176,15.0184,6.499,20.782179060591613
2024-06-18 04:39:01.390496,20.94,-0.11331487166922821,0.26186682663283944,0.9602985495526283,-0.8664025525552771,0.00450323095954222,-1.602982052542321,14.916,6.542200000000001,20.565375724985692
2024-06-18 04:39:01.544064,21.09,-0.11497925317944416,0.26008487943335673,0.9590936535522205,-1.7365595307599775,0.2802038021667893,-1.6787694914069065,14.702800000000002,6.6322,20.337701498648418
2024-06-18 04:39:01.646144,21.19,-0.11579985531412099,0.25761560470303213,0.9589782740285419,-2.0450268740465942,0.3835930944681721,-1.7854163985360885,14.517399999999999,6.708999999999999,20.176023553117815
2024-06-18 04:39:01.748669,21.29,-0.116636555651172,0.25448724547054313,0.9596003623940105,-2.150506876934723,0.36054749781554857,-1.856636143264263,14.324000000000002,6.7812,20.00406044492719
2024-06-18 04:39:01.850895,21.4,-0.11745894901496216,0.2515894672000597,0.960880355174371,-2.047527980273592,0.22464416722999783,-1.9471917238147889,14.1418,6.838799999999999,19.827401549259868
2024-06-18 04:39:01.952986,21.5,-0.118153061400707,0.24913272529267427,0.9623002630223683,-1.8229096162808474,0.06251025583784578,-2.052669940883777,13.9762,6.8831999999999995,19.635973816814737
2024-06-18 04:39:02.055224,21.6,-0.11899581218169,0.2444107287162351,0.9638463589407937,-1.5864022182374493,0.0019846447389597803,-2.128189182912589,13.823400000000001,6.924600000000001,19.441090299474748
2024-06-18 04:39:02.157213,21.7,-0.1205708430755569,0.2399515642669552,0.964831109751022,-1.4671625304314517,0.006703822469577139,-2.2639716267407826,13.6678,6.969799999999999,19.230485550686428
2024-06-18 04:39:02.464072,21.74,-0.12416001254924325,0.22634690467923066,0.9658738438555285,-1.7627857680684411,0.11461407727341824,-2.0240387331157854,13.094399999999998,7.137600000000001,18.62066539880011
2024-06-18 04:39:02.259834,21.81,-0.12227477252087515,0.23521204620303204,0.9656374187594687,-1.5352543639744543,0.044116997989544535,-2.248536479129728,13.4924,7.023000000000001,19.016521905341346
2024-06-18 04:39:02.566811,21.84,-0.12489616928699317,0.2231852316830399,0.965163104950696,-1.6141942977072408,0.021252427712991663,-1.7891309172451444,12.908199999999999,7.1798,18.444057608544796
2024-06-18 04:39:02.361953,21.91,-0.12349545996982617,0.2302505066558485,0.9660348566246716,-1.7038010004297832,0.08597461527458375,-2.083269754231718,13.2968,7.0806,18.813543385791696
2024-06-18 04:39:02.668773,21.94,-0.1250304115709743,0.21981041066541818,0.9657378345290869,-1.221756831509355,-0.15788250701565062,-1.840805280851545,12.764800000000001,7.197799999999999,18.276997643959042
2024-06-18 04:39:02.771475,22.04,-0.1250001066867092,0.2170509030926513,0.9666371408248342,-0.646650501297932,-0.4007169958671056,-1.8912492731719766,12.6768,7.1898,18.100610831810435
2024-06-18 04:39:02.873286,22.14,-0.12499911483816148,0.21462084637060053,0.9678837894718837,-0.09249200511049685,-0.5934460249420573,-1.8130289875953802,12.6368,7.161199999999999,17.927904679403007
2024-06-18 04:39:02.975280,22.24,-0.12500008078234343,0.21215939619900662,0.9695540612024462,0.22563855449932002,-0.7520304472912317,-1.7411578574160465,12.6196,7.117,17.763347892913547
2024-06-18 04:39:03.077774,22.34,-0.12500001781685754,0.209962462227237,0.971010329270932,0.2931627379671352,-0.8651596968081348,-1.707273737653854,12.594999999999999,7.065599999999999,17.603945279090695
2024-06-18 04:39:03.179845,22.44,-0.12499076962736355,0.20841182338447725,0.9718143823860329,0.14052199846603108,-0.9222019169246318,-1.7082382277275112,12.5472,7.011799999999999,17.445419320845076
2024-06-18 04:39:03.337466,22.88,-0.12397174962507268,0.2077508659266159,0.9730465157004338,-0.01772135764313057,-0.9391052960317544,-1.6398934275970185,12.447199999999999,6.928599999999999,17.215116233916707
2024-06-18 04:39:03.509125,23.06,-0.12208374398489896,0.2074618737145586,0.9740198589766352,0.26172580186254624,-0.9329940813772091,-1.7268064923999955,12.398399999999999,6.819599999999999,16.98267007329673
2024-06-18 04:39:03.791984,23.34,-0.1196689777103537,0.20929840824171606,0.973482710578357,1.072464069577872,-0.872548675663681,-1.7060027607331807,12.5766,6.691,16.82220698877105
2024-06-18 04:39:04.497288,23.44,-0.11273192679677516,0.22182227754990738,0.9684228739670349,0.971766292431456,-0.4178563339429863,-1.9089599266504436,13.253800000000002,6.459999999999999,15.816072283396988
2024-06-18 04:39:03.986478,23.53,-0.11713487041438593,0.21245351870723175,0.9711991274040113,1.7680264537357524,-0.850948205301061,-1.6066018158265318,12.821000000000002,6.5926,16.670128238493742
2024-06-18 04:39:04.599405,23.54,-0.11203553172781584,0.22407274725779008,0.9690679918211776,0.9579776146148203,-0.384951792521722,-1.8866541496936198,13.3108,6.4532,15.639003820977965
2024-06-18 04:39:04.088709,23.63,-0.11510204432551144,0.21498250266325586,0.9691013168133346,1.8501806752768046,-0.8531925758926701,-1.723801897612946,12.953999999999999,6.5436000000000005,16.516049871546418
2024-06-18 04:39:04.701647,23.64,-0.11197611355556965,0.2263694302414921,0.9705316170390368,1.066173448240583,-0.4233746221845641,-1.80118109971566,13.3834,6.441799999999999,15.46614726018539
2024-06-18 04:39:04.803657,23.74,-0.11200124040136727,0.22830763858948014,0.9704734144374678,1.2217979315240048,-0.4255334103982336,-1.7177719598311811,13.4762,6.429599999999999,15.305235817776696
2024-06-18 04:39:04.190469,23.74,-0.11416125762459954,0.21661741213637317,0.9681687039875037,1.6355868009769683,-0.7881437772841233,-1.8140177089716172,13.0618,6.5036000000000005,16.349779340400225
2024-06-18 04:39:04.292805,23.84,-0.1133647889175794,0.21827074395971208,0.9679651034902765,1.3588525777107958,-0.6426153753026689,-1.8784640996165962,13.143600000000001,6.4778,16.17695545045176
2024-06-18 04:39:04.906019,23.84,-0.11200056979861754,0.22992125326426643,0.9695498694822218,1.3499756291520222,-0.3775541147755803,-1.7030039189685386,13.582400000000002,6.423200000000001,15.147032610531928
2024-06-18 04:39:05.008260,23.94,-0.1119999103314862,0.2315599932450858,0.9684544702209685,1.4138360802011813,-0.3250525762011065,-1.9222134466624623,13.695000000000002,6.4274000000000004,14.976738528301848
2024-06-18 04:39:04.395051,23.94,-0.11296515385955605,0.21991761295128312,0.9680381920912063,1.139611933688819,-0.5176713697034254,-1.9452239456993223,13.203399999999998,6.466200000000001,15.996748602457592
2024-06-18 04:39:05.110289,24.04,-0.1119999920991234,0.23305765627383077,0.9669561913783618,1.44642531600819,-0.30454238440424214,-2.0669291320550323,13.8098,6.438199999999999,14.78646627282279
2024-06-18 04:39:05.212621,24.14,-0.1120092296889759,0.2345845637465993,0.9654229346458088,1.4180562565757209,-0.28319750141278655,-2.1142944604011973,13.920000000000002,6.4544,14.590334164552482
2024-06-18 04:39:05.519015,24.44,-0.11300835475342078,0.23930041350171663,0.9642551202952552,0.6225976335048068,-0.3721981105046388,-2.32259727572702,14.0926,6.4932,13.952752264739061
2024-06-18 04:39:05.621339,24.54,-0.1129982514075949,0.24012681401613664,0.9651011045040641,0.4254590424743431,-0.4291013246473773,-2.328451697658693,14.104000000000003,6.497,13.732498457978398
2024-06-18 04:39:05.724080,24.64,-0.11299992524793127,0.24090438663892438,0.9659173517388883,0.36770075287406545,-0.4858509483596486,-2.3697195467974352,14.113399999999999,6.4952,13.509292047732817
2024-06-18 04:39:05.826236,24.74,-0.11300005739490834,0.2410305883810558,0.9666310989853043,0.44763020236263273,-0.5234546669616786,-2.3355357307691067,14.1296,6.490400000000001,13.286059576464918
2024-06-18 04:39:05.928564,24.84,-0.11299999671383057,0.2409998534932102,0.9674560851152755,0.5551345439222077,-0.5387170938704833,-2.300839828184361,14.152600000000001,6.4828,13.06676698785147
2024-06-18 04:39:05.365773,24.91,-0.11281669462514204,0.23709508072888347,0.9641446439043918,1.0700411592561168,-0.31906301652826996,-2.2442726447561454,14.036099999999998,6.4772,14.27689282258175
2024-06-18 04:39:06.030812,24.94,-0.11299999865983412,0.2407382558782852,0.9677593248777852,0.551378126514711,-0.5604219069227966,-2.1658562088517597,14.170600000000002,6.4736,12.855962533055443
2024-06-18 04:39:06.133302,25.04,-0.1130000002215105,0.2400339337296163,0.966781010160326,0.41217796291153724,-0.5862282256238064,-2.2802942364229377,14.169999999999998,6.465999999999999,12.648433604413096
2024-06-18 04:39:06.235294,25.14,-0.11304896694209847,0.23997608282378816,0.9651568495368034,0.16862214730114594,-0.6244724088593123,-2.4727683798744495,14.143199999999998,6.4592,12.419649220179874
2024-06-18 04:39:06.388675,25.93,-0.11389910230985194,0.2400009276721865,0.9640691691978904,-0.12662531257435639,-0.6440028051386419,-2.599554033853728,14.0653,6.4536,12.054641896592985
2024-06-18 04:39:06.541893,26.09,-0.1140033505473996,0.23999990927967194,0.963998468848399,-0.24047187290953143,-0.6306524422034949,-2.681410687425872,13.980599999999999,6.454600000000001,11.675575553562208
2024-06-18 04:39:06.643930,26.19,-0.11399861122918394,0.23986670533286078,0.9641345005558586,-0.17202538005615448,-0.5885134692126324,-2.6008359553407403,13.9342,6.4596,11.424734228235845
2024-06-18 04:39:06.746290,26.29,-0.1140397757156683,0.2391158198309998,0.9649330795260317,-0.046100646847945084,-0.5369819524406129,-2.659906199238592,13.904799999999998,6.4696,11.173100499289443
2024-06-18 04:39:07.461452,26.34,-0.11299967071033892,0.23376273274607168,0.9666001203729804,-0.24433404741622566,-0.4654944213562395,-2.570169991676562,13.7614,6.552,9.465875314282746
2024-06-18 04:39:06.848659,26.39,-0.11454425270310738,0.23896768391585846,0.9657932581230977,0.10701787674835975,-0.5033855732861039,-2.6304795683014097,13.894,6.483199999999999,10.920899420690125
2024-06-18 04:39:07.563484,26.44,-0.11300095478592675,0.23240922910183004,0.9672941417725948,-0.3220766035579226,-0.5223476297487479,-2.5602014154490442,13.6772,6.547,9.22246747946979
2024-06-18 04:39:06.950530,26.5,-0.11443272046644173,0.23857661743780456,0.966037510158708,0.2722492402027889,-0.44819811194057246,-2.6153789552412037,13.896800000000002,6.499199999999999,10.670904186872624
2024-06-18 04:39:07.665474,26.54,-0.11313320600095811,0.23091899910575925,0.9679745074707438,-0.2924291369823395,-0.5315833151300344,-2.6235553583710827,13.5982,6.5426,8.973997960314458
2024-06-18 04:39:07.052770,26.6,-0.1139937086580459,0.23772736599224506,0.9660023953729336,0.3576686200278962,-0.37998922123057044,-2.5298158341849084,13.904599999999999,6.516799999999999,10.42552940059717
2024-06-18 04:39:07.767462,26.64,-0.11393313063052413,0.23002242722714444,0.9680221853319326,-0.2080658589861582,-0.5112282202756996,-2.5803321287473473,13.5294,6.543200000000001,8.726029244470629
2024-06-18 04:39:07.154853,26.7,-0.11385485801447486,0.23688508269520375,0.9659986937759248,0.349807055675502,-0.33248153481386766,-2.4973102417452964,13.904999999999998,6.534999999999999,10.188856459960402
2024-06-18 04:39:07.869710,26.74,-0.11480251689156003,0.22920019101242056,0.9679986318809289,-0.1347388693799831,-0.4875845983922901,-2.512155415887837,13.4706,6.547999999999999,8.483265610086432
2024-06-18 04:39:07.257093,26.8,-0.11311712055259371,0.23604472013057967,0.9660000548158081,0.21557095351861869,-0.34318948923418097,-2.4957386228530605,13.886,6.5478,9.95139414460465
2024-06-18 04:39:07.971830,26.84,-0.11563763063697871,0.2283633916086561,0.9679994912475944,-0.06563198065481483,-0.4879337960361828,-2.4495787097531534,13.418000000000001,6.554600000000001,8.250096029737794
2024-06-18 04:39:07.359118,26.91,-0.11296790158933812,0.235189828729351,0.9660092587526528,-0.02628922598617036,-0.39351025044899735,-2.55205627522398,13.836599999999999,6.553800000000001,9.709225557179696
2024-06-18 04:39:08.073690,26.94,-0.11603565927748154,0.22718153239489786,0.9677392097028574,-0.06678920320563578,-0.5252419736264279,-2.518878167985826,13.361799999999999,6.559399999999999,8.012995993649739
2024-06-18 04:39:08.175808,27.04,-0.11600704869676821,0.2248279068530207,0.9670338537961864,-0.16029683819279827,-0.5900722514223155,-2.5032616282540046,13.291,6.5588,7.7724665835622915
2024-06-18 04:39:08.329031,27.88,-0.11559416329724671,0.22263621574735165,0.9669979045736339,-0.5065702051744903,-0.660288757272198,-2.4977182936092683,13.137999999999998,6.5476,7.41915129492661
2024-06-18 04:39:08.482362,28.03,-0.11496281845834175,0.22076361889529417,0.9682008162645015,-0.877586806225332,-0.6715227119938225,-2.7055769171107187,12.9388,6.535200000000001,7.050702670140934
2024-06-18 04:39:08.584350,28.13,-0.1149966456747695,0.21866242901874614,0.9694895492761149,-1.0687048231048721,-0.6549960599619322,-2.8529097161892176,12.779799999999998,6.5304,6.780938617790102
2024-06-18 04:39:08.686597,28.23,-0.11500138761088005,0.2164132089651511,0.9702959874476766,-1.25750487394339,-0.5931576852683973,-2.7231520277743435,12.6046,6.5283999999999995,6.514263055995184
2024-06-18 04:39:08.788614,28.33,-0.11499996506701779,0.21327361251569266,0.9718782020877443,-1.3502717951144132,-0.48727519961462135,-2.426818220928953,12.422,6.532000000000001,6.270524268804734
2024-06-18 04:39:08.893381,28.44,-0.1149907370220262,0.21056573946535032,0.9735938252613521,-1.3857666510291946,-0.3966154372544014,-2.2489570754007104,12.226600000000001,6.5384,6.053925519956187
2024-06-18 04:39:09.034870,28.58,-0.11444884637970502,0.20789167002688907,0.9746260135199488,-1.4073745014110997,-0.28789481068532596,-2.1570200729436877,11.992799999999999,6.553,5.8460797175208965
2024-06-18 04:39:09.153609,28.7,-0.1147277065590659,0.20360503404360034,0.9742281886816515,-1.4616771488710838,-0.13313593861266168,-2.1493816094402356,11.7722,6.582599999999999,5.643324258384302
2024-06-18 04:39:09.288677,28.83,-0.11507784628482046,0.1988291160540229,0.9731585687810475,-1.5294032474195478,0.04659340081543149,-1.9817872612235718,11.534600000000001,6.638,5.448650260028261
2024-06-18 04:39:09.454713,29.0,-0.11589935645072598,0.19422846521654555,0.9721968040119622,-1.562898709402395,0.2944078058082112,-2.0033013241695037,11.226,6.7540000000000004,5.263576693956408
2024-06-18 04:39:09.588036,29.13,-0.11717745137277462,0.1897701139411405,0.972094081170664,-1.4845504398475415,0.5966153438371229,-2.0134059716840342,10.9912,6.8738,5.07511137779166
2024-06-18 04:39:09.714729,29.26,-0.11888787546728666,0.18528373343059196,0.9734039904300424,-1.3464113625563359,0.7950606652981239,-1.887657686512157,10.7804,7.002800000000001,4.891816161915541
2024-06-18 04:39:09.834644,29.38,-0.12027572806830375,0.18147713736607557,0.9752325077416412,-1.1515444800024888,0.8573041435368343,-1.7688129149577356,10.599799999999998,7.1248000000000005,4.723016894961822
2024-06-18 04:39:09.971599,29.52,-0.12205983790988055,0.17758733187202683,0.977077315607058,-0.8934638461962978,0.7997885015941165,-1.922081122370844,10.423399999999999,7.2494,4.552583905389384
2024-06-18 04:39:11.470306,29.54,-0.12888915515902452,0.19528254170444853,0.9738083334574933,2.8776932797783976,-1.7207376834678327,-3.199630419897544,11.9408,7.2010000000000005,2.00181121381612
2024-06-18 04:39:11.572423,29.64,-0.12706384995910225,0.19988611636165113,0.9721484694669144,2.6164835115145295,-1.812382507911862,-3.221326134407218,12.1266,7.0946,1.6931202297957095
2024-06-18 04:39:10.104872,29.65,-0.12354937873908585,0.17419818731770254,0.9782880888160065,-0.4926290229404591,0.6406719526676089,-2.0883815410022706,10.294599999999999,7.3538000000000014,4.359521581312522
2024-06-18 04:39:11.674560,29.74,-0.12541556330776596,0.20472221140664826,0.9711754817893523,2.3592323242650637,-1.8414834231481136,-3.265330612214626,12.293800000000001,6.986400000000001,1.380852310815651
2024-06-18 04:39:10.240282,29.79,-0.1254779562657815,0.1717696534601887,0.9787287062812734,0.00419482000438805,0.44621042078660905,-2.28994997161975,10.2322,7.438,4.153152441714672
2024-06-18 04:39:11.777160,29.84,-0.1236574626300437,0.20791276676509418,0.9705399933446085,2.158291781720887,-1.8743968445028822,-3.3623432826259845,12.449000000000002,6.8788,1.061032129154595
2024-06-18 04:39:10.358519,29.9,-0.12749887021370468,0.17096932445611124,0.9777939008674084,0.5705446451065667,0.20618291544168055,-2.5667076935541786,10.2334,7.496599999999999,3.9198487448146464
2024-06-18 04:39:11.879152,29.94,-0.12143508648375015,0.2113711316367497,0.96972485629659,2.00998968914353,-1.8926090825087698,-3.4843977770715413,12.593799999999998,6.773000000000001,0.7297284041844805
2024-06-18 04:39:11.981393,30.04,-0.11975751789552513,0.21541764562884208,0.9690196612274538,1.8671542924782365,-1.8900246357079595,-3.622118431022668,12.729,6.67,0.3854355807673168
2024-06-18 04:39:10.541380,30.09,-0.12977827468965517,0.17098129988774893,0.9769990040294964,1.07203049532078,0.0075220454024051,-2.6655677884681284,10.3216,7.5572,3.6670122674938064
2024-06-18 04:39:12.083507,30.14,-0.11804223671937837,0.21879629366052428,0.9689778204262371,1.6892155595959206,-1.8533316209948403,-3.754971281542894,12.8522,6.574600000000001,0.027285927902641356
2024-06-18 04:39:10.696698,30.24,-0.1331919491325669,0.17110058797712818,0.976376791588182,1.6631701268802321,-0.2537600348027044,-2.726022098960796,10.5114,7.5952,3.4093501544355895
2024-06-18 04:39:12.185627,30.24,-0.11563733671264327,0.2214232788534074,0.9690015353620882,1.5047667212823108,-1.7805690242688772,-3.88935907169392,12.9586,6.4876000000000005,-0.3440242196438161
2024-06-18 04:39:10.891603,30.44,-0.13488653678857637,0.1738284667175988,0.9763917968025032,2.2758289123432816,-0.6260538780733883,-2.7842501712695027,10.7822,7.5932,3.146132675551418
2024-06-18 04:39:12.492062,30.54,-0.11175455602159741,0.22607849647827266,0.968033841880934,0.8426378405542685,-1.5019226902252178,-4.356251948124248,13.149600000000001,6.2992,-1.5492152506124786
2024-06-18 04:39:11.077176,30.62,-0.13440003293840835,0.17875783485848698,0.9769558695147488,2.7077555311340555,-0.9895304887915332,-2.729444570550618,11.1004,7.5294,2.882504282632259
2024-06-18 04:39:12.594225,30.64,-0.11016209061857533,0.2269287223676252,0.9679760692132872,0.6030255637649328,-1.3985766405492688,-4.488246785854896,13.165199999999999,6.2618,-1.9807433342247371
2024-06-18 04:39:12.696336,30.74,-0.10917573882542428,0.22702044695405563,0.9680012932252016,0.38787598021522207,-1.2843578888035339,-4.600443047132102,13.1602,6.2379999999999995,-2.4248138568877096
2024-06-18 04:39:11.207207,30.75,-0.13310617705309702,0.18423563178801478,0.9762071048736496,2.9999276312196304,-1.3201926682546978,-2.993740963077562,11.379999999999999,7.4442,2.6083560918161544
2024-06-18 04:39:12.798530,30.84,-0.10896268838316356,0.22639911492897674,0.9680005660704658,0.2213561985866086,-1.1747278517090085,-4.655622516651546,13.137200000000002,6.224600000000001,-2.8748222734936304
2024-06-18 04:39:11.361445,30.91,-0.13116463955700547,0.18968262981267717,0.9750667548205911,3.034707394445485,-1.54873116052237,-3.1670770576138763,11.6862,7.322,2.309025880093256
2024-06-18 04:39:12.901021,30.94,-0.10873760003584894,0.22596595378056125,0.968260787022334,0.07894664346080753,-1.0905343794385476,-4.748072774263831,13.0986,6.2198,-3.3356692533107433
2024-06-18 04:39:13.003015,31.04,-0.10803506523816486,0.22585845421498513,0.9690994318385089,-0.01887071042151458,-0.9645436783571549,-4.789745389536423,13.047,6.227200000000001,-3.798963635489328
2024-06-18 04:39:13.105012,31.14,-0.10797599450609134,0.2250686115692407,0.9699570877029393,-0.07110105395259883,-0.8413096533533293,-4.862729724193521,12.987,6.2456,-4.2703188772925404
2024-06-18 04:39:13.207249,31.24,-0.10801049146210492,0.22418833167494534,0.9707919928673586,-0.08932143917090973,-0.7529963743648963,-4.944597531364037,12.925199999999998,6.2707999999999995,-4.7512384737045865
2024-06-18 04:39:13.514024,31.54,-0.1091416338612865,0.22070531224999956,0.9718781263585685,-0.00028229681425370013,-0.5917252733822647,-5.18867211009348,12.750600000000002,6.377800000000001,-6.240634498935548
2024-06-18 04:39:13.616017,31.64,-0.10993140518641768,0.2191217462205967,0.9711312630274371,0.01144790317193512,-0.5636642719845618,-5.190961603910785,12.695599999999999,6.4186000000000005,-6.745755822708635
2024-06-18 04:39:13.718259,31.74,-0.11080243784307293,0.21739691587783208,0.970956665982644,0.07202947632089415,-0.5488605780892869,-5.2598845565564485,12.645,6.4616,-7.257363676356384
2024-06-18 04:39:13.820379,31.84,-0.11163768777282679,0.21572489910290357,0.9703993290969283,0.11700520500124671,-0.5515782436721774,-5.284950888165506,12.5946,6.505,-7.773468045405809
2024-06-18 04:39:12.338930,31.89,-0.11317634140070242,0.22395272933780375,0.968869762014936,1.2025068215478527,-1.6592512821625736,-4.124832622240461,13.0777,6.380700000000001,-0.9308630259847026
2024-06-18 04:39:13.922746,31.94,-0.11245876745905645,0.2145054988337427,0.9699677687107696,0.12335102170597875,-0.5954619223615036,-5.233266031810471,12.545,6.545999999999999,-8.285427455322393
2024-06-18 04:39:14.024994,32.04,-0.11315304602425033,0.21370661909738695,0.9699915630964362,0.13947967421962176,-0.6380887951902748,-5.308058844068027,12.496,6.5842,-8.80158398825717
2024-06-18 04:39:14.126927,32.14,-0.11394685193784038,0.21217066040109303,0.9700017266503901,0.16624867807505933,-0.6934581059794149,-5.303698498910842,12.4498,6.6164000000000005,-9.320461699414704
2024-06-18 04:39:14.229125,32.24,-0.11480064618852448,0.21116707996800682,0.9700093055548418,0.07337718229551624,-0.3076996026061858,-5.211155950439177,12.4274,6.625399999999999,-9.833710922276044
2024-06-18 04:39:13.360488,32.91,-0.1088169349139322,0.22213507768900348,0.971231268198409,-0.04702987384429842,-0.6504105694069657,-5.084668876654343,12.836200000000002,6.3203,-5.483680648116166
2024-06-18 04:39:15.456203,33.44,-0.11596665687249494,0.2094233856738505,0.9710002943528442,0.8130526737225148,-0.35508667723319604,-4.221738270494237,12.7012,6.4388000000000005,-15.194405661490638
2024-06-18 04:39:15.558193,33.54,-0.11573076721105122,0.2102726353697178,0.9710008648812473,0.3374517961089522,-0.1466565497027012,-5.055137390737473,12.679,6.4506,-15.653469919011116
2024-06-18 04:39:15.660560,33.64,-0.1150355983290042,0.21111491708624244,0.970999909599438,-0.027259770039704118,0.011986557952000241,-5.163605966769294,12.6434,6.4684,-16.157703294541466
2024-06-18 04:39:15.762928,33.74,-0.1149761406120274,0.21195527985093537,0.9709999836778342,-0.00712741698413914,0.00308436405405202,-5.097069607773027,12.6154,6.482600000000001,-16.65754650072232
2024-06-18 04:39:15.864546,33.84,-0.11500123592191953,0.21279171855785145,0.9710000041473773,0.0014595523188337598,-0.00063708275725956,-5.117537057290905,12.5952,6.494,-17.15575670987395
2024-06-18 04:39:14.382552,33.93,-0.11604812903714817,0.2101637443143674,0.9710282233496523,0.07343418007118899,-0.1400810391173046,-4.659107830084299,12.42,6.6039,-10.561903286831754
2024-06-18 04:39:15.966663,33.94,-0.11500056944444323,0.21388323985529573,0.9714231113963454,6.681799078574093e-05,-2.839737594771603e-05,-5.16519934997219,12.581999999999999,6.503,-17.657994717202417
2024-06-18 04:39:16.068782,34.04,-0.11499991049392792,0.2152887876275063,0.9720127115738973,-4.8326535786055196e-05,2.102137506150988e-05,-5.215976612555484,12.5748,6.5104,-18.165315053444267
2024-06-18 04:39:14.536146,34.08,-0.1170197596066311,0.20973199267945697,0.9720210677912167,0.2787761034020835,-0.2563698392909072,-4.816897110529469,12.4296,6.575399999999999,-11.218867517814783
2024-06-18 04:39:16.170775,34.14,-0.11486670512020085,0.21599564202306926,0.9718821081038584,2.655408167532303e-06,-1.1742730949069893e-06,-5.276035999845201,12.5722,6.516,-18.678274405566967
2024-06-18 04:39:14.638140,34.18,-0.11706266614476195,0.20903552342218507,0.9720626131804119,0.4176727639000397,-0.29867018886526175,-4.399786664076105,12.4484,6.556399999999999,-11.683529970318876
2024-06-18 04:39:14.740504,34.29,-0.11775910403936815,0.20896688608625777,0.9727590714153334,0.5299994486530679,-0.306779667075734,-4.588500631998815,12.472400000000002,6.541799999999999,-12.100286949361346
2024-06-18 04:39:14.842874,34.39,-0.11803701690905063,0.20840111572661724,0.973037021523537,0.6151409020037012,-0.3055763511164427,-4.66414613107586,12.499799999999999,6.5298,-12.57222315462756
2024-06-18 04:39:16.477498,34.44,-0.11399972875709703,0.21703681973744562,0.9709998069256262,-1.531374229927721e-08,6.572885666478547e-09,-4.138387960687622,12.581800000000001,6.5242,-19.948620755893238
2024-06-18 04:39:14.944992,34.49,-0.11758031352079687,0.2079673053910111,0.9730034253419587,0.6822485371845726,-0.3292347198860006,-4.389051645274889,12.5296,6.516,-12.990454575502957
2024-06-18 04:39:16.579866,34.54,-0.11400095555017735,0.2172643195023889,0.970740078058917,6.7537828618521605e-09,-2.9403724940335374e-09,-4.654769098301917,12.5884,6.5264,-20.405195800592956
2024-06-18 04:39:15.047109,34.59,-0.11698589874575611,0.20799155557904597,0.9727377324083528,0.7140520800169377,-0.3454857977676166,-3.509241947371632,12.5612,6.5012,-13.381095849152828
2024-06-18 04:39:16.681982,34.64,-0.11399991728461123,0.2179647670755931,0.9700337624528459,-1.9915751744617936e-10,8.941729543475699e-11,-5.373097521242696,12.5954,6.529000000000001,-20.890583279859896
2024-06-18 04:39:15.149473,34.7,-0.11698463802024636,0.20813502766769632,0.971900593569109,0.7415312902520785,-0.3639493147804281,-4.550551978821232,12.5942,6.4848,-13.760633266160614
2024-06-18 04:39:16.784477,34.74,-0.1140489472654449,0.21801473978621094,0.969976046617988,-1.7546538513365097e-10,7.613500431179903e-11,-4.937843602656702,12.602200000000002,6.5324,-21.410277878183884
2024-06-18 04:39:15.251793,34.8,-0.11699263463891225,0.20888426158853507,0.9710919194162478,0.7840201502066088,-0.36675160649682037,-5.172655290292933,12.629,6.468999999999999,-14.253228002933232
2024-06-18 04:39:16.886717,34.84,-0.1147517482181217,0.2173986184318979,0.9700012976511185,2.235249379018912e-11,-9.785204655421077e-12,-5.20121513840075,12.608,6.535999999999999,-21.884053411836984
2024-06-18 04:39:15.353833,34.9,-0.11640014070915146,0.20903225850625473,0.9709689729300823,0.7971628847300656,-0.3608442826156585,-5.083074456479156,12.665799999999999,6.453,-14.75504054726817
2024-06-18 04:39:16.988834,34.94,-0.11443710943630332,0.21696616503083646,0.9700005663013475,2.93132886703178e-12,-1.2637299022260586e-12,-5.72148811326913,12.6118,6.5396,-22.432676632562504
2024-06-18 04:39:17.091077,35.04,-0.11409767688657735,0.21699173546288403,0.9699999090154952,-9.208525808172209e-13,4.01271344460511e-13,-5.6392128779157185,12.613800000000001,6.542999999999999,-22.988351568495546
2024-06-18 04:39:17.193208,35.14,-0.11407222553461474,0.21686846949215227,0.9699999923244184,2.8877749098888518e-15,-1.6505061676093375e-15,-4.907310440059115,12.6132,6.545999999999999,-23.50918642861616
2024-06-18 04:39:17.500098,35.44,-0.11400032751511821,0.2153996071994848,0.9706001249316276,-5.113362542967178e-16,2.2101589077055094e-16,-5.12200137217838,12.5984,6.5526,-24.88203601373383
2024-06-18 04:39:17.602341,35.54,-0.11400001078643118,0.2147068146041195,0.9710332644179429,1.2230739912812017e-16,-5.334922941301821e-17,-5.103306801635533,12.588,6.554399999999999,-25.40471897290962
2024-06-18 04:39:17.704456,35.64,-0.11399998955435016,0.21389212279593064,0.9710083547440702,3.126785661445969e-18,-1.3056416001986743e-18,-5.390212143746398,12.5744,6.5558000000000005,-25.89729969818925
2024-06-18 04:39:17.806830,35.74,-0.11404896760367964,0.21309361148122874,0.9709982514056484,-3.8154470630652215e-18,1.6587425721047247e-18,-4.9733731746393826,12.5586,6.5573999999999995,-26.415865394609817
2024-06-18 04:39:17.909067,35.84,-0.11476097057241011,0.21295983001494706,0.971009151608804,2.714711040660748e-19,-1.195658501483475e-19,-5.140510843193064,12.540799999999999,6.5598,-26.911133398085674
2024-06-18 04:39:16.324324,35.87,-0.11404175186979269,0.21641423669197712,0.9710407030915291,4.773419627276325e-07,-2.065372461965763e-07,-4.333245208032452,12.5748,6.520899999999999,-19.38686890169726
2024-06-18 04:39:18.011058,35.94,-0.11503723424938059,0.21240011274214562,0.9716001824137024,8.406808246840643e-20,-3.640169165107083e-20,-5.2381969445301255,12.522,6.5628,-27.40048604832912
2024-06-18 04:39:18.113176,36.04,-0.11500335054436661,0.21196760343428842,0.9720332611207396,-1.5775084817953854e-20,6.88872206166584e-21,-5.992799910603582,12.501999999999999,6.566,-27.967291179897536
2024-06-18 04:39:18.215617,36.14,-0.11499861123068486,0.21185826923106874,0.9720083534024415,-9.245680500867147e-22,3.948392233753673e-22,-5.997780892563393,12.483,6.5694,-28.55617284155456
2024-06-18 04:39:18.522065,36.44,-0.11499999551855056,0.2103995465154347,0.9720000573868696,-1.324163570481787e-23,5.741432619678889e-24,-5.1760926986283256,12.425,6.5798000000000005,-30.205255199390137
2024-06-18 04:39:18.624348,36.54,-0.11499999937054314,0.20996769429182494,0.971999996714073,1.9648972737181083e-24,-8.592301719431321e-25,-4.98306512822508,12.407399999999999,6.582400000000002,-30.70352537164777
2024-06-18 04:39:18.726589,36.64,-0.11500000018857717,0.21025244174787333,0.9719999986600426,1.9487531722133002e-25,-8.380702511742113e-26,-6.022103223808692,12.392199999999999,6.5855999999999995,-31.251552103328073
2024-06-18 04:39:18.828581,36.74,-0.11504896692476851,0.21096788126436156,0.9720000002214843,-7.499818909463279e-26,3.266239440258383e-26,-6.234008923632505,12.3794,6.5893999999999995,-31.859466537928597
2024-06-18 04:39:18.930616,36.84,-0.11576097033073718,0.21102401290460887,0.9719907736571557,1.4973451111722681e-27,-6.826925146235182e-28,-6.25260459209401,12.369000000000002,6.593999999999999,-32.47130500067304
2024-06-18 04:39:17.346924,36.89,-0.11399597427571245,0.21603714412383843,0.970004614804737,1.1827814534383504e-14,-5.131641167034687e-15,-4.650504396818704,12.6083,6.549799999999999,-24.168382805951616
2024-06-18 04:39:19.032982,36.94,-0.1160372342918093,0.2109986494143284,0.9713998749731818,2.0161353183724572e-27,-8.751479429056237e-28,-5.757832505606979,12.3612,6.599600000000001,-33.070138390257874
2024-06-18 04:39:19.134974,37.04,-0.11600335054730113,0.211422548320078,0.9709667355933329,-2.3407443758253807e-28,1.025471288642914e-28,-5.54969127531785,12.356399999999999,6.606199999999999,-33.594071609702084
2024-06-18 04:39:19.236915,37.14,-0.11625948908680303,0.21201280389534963,0.9709916452576017,-3.583773134507473e-29,1.546692367755709e-29,-6.397091880441488,12.354800000000001,6.615,-34.198237589862984
2024-06-18 04:39:18.368799,37.92,-0.11500003589084878,0.21103804254073183,0.971999088446788,2.5840040118075797e-22,-1.1232931540174e-22,-5.723595705300337,12.4538,6.575200000000001,-29.427173230587357
2024-06-18 04:39:20.463947,38.34,-0.11700007474662269,0.2121157970331003,0.971000000000004,-0.02671138496592886,0.00570633098700638,-4.714030943084913,12.383799999999999,6.6938,-41.33090416527517
2024-06-18 04:39:20.566184,38.44,-0.11699994260559962,0.21196768829988716,0.9709999999999995,-0.076665377811038,0.0347901964423751,-5.253192408955415,12.3744,6.688599999999999,-41.806387953246556
2024-06-18 04:39:20.668428,38.54,-0.11657689196669878,0.21157661767848332,0.9710000000000004,-0.15066418259814893,0.07124964771883585,-5.4330305628287565,12.357800000000001,6.683,-42.338410621711475
2024-06-18 04:39:20.770419,38.64,-0.11598728963963637,0.21098824370091745,0.9710000000000004,-0.24945723424223187,0.1002668161484577,-4.39567228649684,12.3336,6.676,-42.82272296988048
2024-06-18 04:39:20.872539,38.74,-0.11586054409738389,0.21085123525024616,0.9710000000000004,-0.4080629457961642,0.16015943612103503,-4.29081640603705,12.296000000000001,6.6701999999999995,-43.22488318425797
2024-06-18 04:39:20.974778,38.84,-0.11529465432455561,0.21001968713841598,0.9710489669245211,-0.5916183637708017,0.19365416953407874,-4.3080379321093885,12.2372,6.671200000000001,-43.632504520934745
2024-06-18 04:39:21.076900,38.94,-0.11498850689593305,0.2084460177509086,0.9717609703361871,-0.8590579921479365,0.24724957532143538,-5.293008916732591,12.150200000000002,6.6762,-44.120928258885456
2024-06-18 04:39:19.390380,38.94,-0.11740004775955498,0.21241175614163998,0.971000911672742,5.1008450996541804e-30,-2.221292343287888e-30,-5.751462128701235,12.3574,6.630599999999999,-35.064723204246064
2024-06-18 04:39:21.179153,39.04,-0.11499261043783773,0.2070789597052593,0.971614122971722,-1.1461451047205409,0.22979862586371555,-5.1328742718132006,12.036200000000001,6.6726,-44.632449944324584
2024-06-18 04:39:19.543768,39.09,-0.11803593644730075,0.2130369642241142,0.9709999426050931,-2.982602175121729e-31,1.295924700887493e-31,-6.526391328794555,12.3644,6.6474,-35.9607987153053
2024-06-18 04:39:19.646130,39.19,-0.1180027837698717,0.21342654003483372,0.971000003286183,2.6195686341330604e-32,-1.1507471805136296e-32,-6.4808031078815365,12.3706,6.6579999999999995,-36.59903740294593
2024-06-18 04:39:19.748496,39.29,-0.11799870226435552,0.21401132329563874,0.9710000013401652,6.100529352438019e-33,-2.6387505131436105e-33,-6.464367039462255,12.376999999999999,6.6678,-37.23367280610635
2024-06-18 04:39:21.485793,39.34,-0.11294494123925806,0.2003952686464836,0.9729986842282136,-2.158390670501567,0.16290711512666345,-2.0640402547746097,11.541599999999999,6.565,-45.78013811849165
2024-06-18 04:39:19.850492,39.4,-0.11800004283605019,0.21388214096178962,0.9709999997784899,-1.3316567030240284e-33,5.810843028335717e-34,-6.4235206191559255,12.382,6.6762,-37.865725115792095
2024-06-18 04:39:21.587907,39.44,-0.11067684053719826,0.1975490592924664,0.9743854827611209,-2.5191154244565306,0.0520853815340641,-1.4341306592919272,11.3378,6.4566,-45.9495678986004
2024-06-18 04:39:19.952731,39.5,-0.1179908069224235,0.21311402917677685,0.970999999982423,-4.938622872794915e-35,2.0880178228955318e-35,-6.406247736872461,12.386,6.6828,-38.4945061592883
2024-06-18 04:39:21.690354,39.54,-0.10928846821596042,0.19448461830747943,0.9756536633399924,-2.8758390029941148,-0.06995373222853547,0.7819309029731878,11.125399999999999,6.292,-45.95482055955417
2024-06-18 04:39:20.054849,39.6,-0.11739987059575348,0.21296740940491166,0.9710000000080395,4.299517232439151e-35,-1.8697978411510229e-35,-5.823644269177732,12.389199999999999,6.688,-39.103998701046244
2024-06-18 04:39:21.792516,39.64,-0.10791403709276862,0.19181745336351608,0.9763070179847123,-3.1421569084764966,-0.21645517163686606,4.296473003288765,10.9174,6.071199999999999,-45.67376456253137
2024-06-18 04:39:20.157103,39.7,-0.11696673505084305,0.21299980628589466,0.9709999999997448,-2.6519410269485365e-36,1.1704738478747481e-36,-5.47607279006844,12.391,6.691599999999999,-39.62612069506466
2024-06-18 04:39:21.894844,39.74,-0.1043313891142155,0.1885726947806018,0.977105034037514,-3.4514641634782977,-0.32721594955011335,8.97125721530786,10.7238,5.7504,-44.95599214250947
2024-06-18 04:39:20.259209,39.81,-0.11699164543494664,0.21300095610473888,0.9709999999997937,-9.859122809587033e-37,4.271312214550382e-37,-6.198192302054094,12.391399999999999,6.6942,-40.215816082019295
2024-06-18 04:39:21.997211,39.84,-0.0991111208187071,0.1851294952203267,0.9779552267632143,-4.070772108343066,-0.33263751066402014,16.726541358802898,10.533000000000001,5.2826,-43.61377561469766
2024-06-18 04:39:20.361575,39.91,-0.11700174859267898,0.21286662802755701,0.9710000000000278,-0.0005628079855384,-7.414143427767205e-38,-5.9890536148356235,12.388200000000001,6.6962,-40.813643760578586
2024-06-18 04:39:22.099333,39.94,-0.09110005319647943,0.18103435842209964,0.9788104606802295,-5.214036909091566,-0.2344016618658456,28.58342333954581,10.2988,4.630800000000001,-41.259733391399564
2024-06-18 04:39:22.201734,40.04,-0.08202687566462621,0.17741429326849184,0.9802372413659827,-7.026520682224304,0.4388567487378632,45.110422982662854,9.956999999999999,3.8148000000000004,-37.39606546447773
2024-06-18 04:39:22.508288,40.34,-0.045024716264941575,0.1557212578830577,0.988626247260157,-9.200954175846178,2.022543388393558,59.59894916308245,8.1266,1.4556,-19.686870700071385
2024-06-18 04:39:22.610529,40.44,-0.030373088526746583,0.13990182658046907,0.9937651789955602,-7.530644466013131,2.0904144558803686,47.13661546020503,7.498600000000001,1.0014,-14.433174181192381
2024-06-18 04:39:22.712894,40.54,-0.01736399780844816,0.12448764498294682,0.9958247275825409,-5.948800170835736,2.992542131104671,35.67834518392514,6.953399999999999,0.7976,-10.42880611118897
2024-06-18 04:39:22.814969,40.64,-0.006382730829442559,0.11185101351228308,0.9956246722218957,-4.7358559980104165,4.072592904961143,28.326098907769495,6.491000000000001,0.7722,-7.316565992470567
2024-06-18 04:39:22.917255,40.74,0.00105545631033006,0.10337664087444298,0.9949878049715377,-3.990677170567281,5.115813621646206,23.390256925134963,6.0838,0.8792,-4.782476720986991
2024-06-18 04:39:23.019499,40.84,0.005415563364760061,0.09554785146538003,0.9949831810751585,-3.431237962823455,6.115772975902141,20.045784064287254,5.724200000000001,1.1046,-2.6415913342384356
2024-06-18 04:39:21.332520,40.88,-0.11432041416232977,0.20451892442624375,0.9716670861936507,-1.6451211835807853,0.1542837447214073,-4.287490304539954,11.8123,6.6392,-45.31955551434042
2024-06-18 04:39:23.121863,40.94,0.00536433248874124,0.08779717479699808,0.995011170528089,-2.7952663417187575,7.035079127878379,17.410627541874554,5.427199999999999,1.4392,-0.7859806059179656
2024-06-18 04:39:23.223983,41.04,0.00196130794740724,0.08206399617695899,0.9956004247898989,-2.1333788445750064,7.84920030193076,15.160212759589172,5.1986,1.8742,0.829256979330275
2024-06-18 04:39:23.530587,41.34,-0.023488878532437064,0.07295175697897209,0.9959982538930982,-0.28406470667767153,9.464614405741116,10.97807581325817,4.9348,3.6154,4.6285558472708
2024-06-18 04:39:23.633073,41.44,-0.0348382303343706,0.07220966729290944,0.9959906986706727,0.17497113705628328,9.699981397940931,9.2947240169992,4.970000000000001,4.2926,5.613741650398757
2024-06-18 04:39:23.735197,41.54,-0.04874243049333476,0.07256652544084952,0.9953999323251521,0.5447042860138793,9.761868422537836,8.449931078251812,5.0552,4.9876,6.526410924780836
2024-06-18 04:39:23.837187,41.64,-0.0628026929093134,0.07430001384201682,0.9945436209983971,0.8635245488512385,9.652151569284769,6.9165981032159864,5.1834,5.6828,7.277538329133956
2024-06-18 04:39:23.939301,41.74,-0.07677330939702573,0.07709121289494641,0.9937180543595258,1.084500819708991,9.435403689798411,8.118541138612397,5.344399999999999,6.366,8.041142369313791
2024-06-18 04:39:24.041671,41.84,-0.09078977045056454,0.08044215428448961,0.9927536272519433,1.1962765345670534,9.103294187054825,6.58693944102003,5.529400000000001,7.0282,8.79154694226364
2024-06-18 04:39:22.354987,41.9,-0.06507754319339196,0.17060629411827682,0.982877893658339,-9.369785568291476,1.8604900195091876,60.479046595908855,9.1216,2.5591999999999997,-28.990561588502096
2024-06-18 04:39:24.143663,41.94,-0.10366966502867063,0.08368224967060284,0.991191145254389,1.191403111350951,8.680258016478033,7.150185617028842,5.727,7.6596,9.491256085012145
2024-06-18 04:39:24.245910,42.04,-0.11509338616889975,0.08772409160490169,0.9897366241143324,1.1402714092918305,8.147856630427281,5.630223134471711,5.9319999999999995,8.2482,10.120150765976273
2024-06-18 04:39:23.377345,42.92,-0.00956950759977826,0.07601977817010203,0.9960207670874323,-1.1416666358681353,8.797402491304105,12.467483893834064,5.002000000000001,2.6846,2.8556400852525896
2024-06-18 04:39:25.471951,43.24,-0.1628559900428354,0.059658956640750604,1.004183318842508,-7.563766581137855,-1.1542161952050183,3.2140719402367983,2.8418,9.306999999999999,14.863765581621987
2024-06-18 04:39:25.574354,43.34,-0.1562800192728623,0.04960821584397844,0.9993189106193533,-7.518980624336956,-2.142268410655138,2.0850061280773002,2.2367999999999997,9.006,15.139982431851271
2024-06-18 04:39:25.676677,43.44,-0.1503325530494183,0.03939294903563174,0.9988733912252534,-6.771621658101535,-3.134338570619448,1.7280160199161538,1.7027999999999999,8.6266,15.330138767006735
2024-06-18 04:39:25.779213,43.54,-0.14512703749194172,0.027087361056298505,0.9997961055919096,-5.693545179786488,-3.375106739763769,1.6310851168430556,1.2506,8.2446,15.513626101466352
2024-06-18 04:39:25.881207,43.64,-0.13777767695327245,0.01504224191841006,1.0018419549914523,-5.011481863743655,-3.5956588208956206,1.0994829122993441,0.8288,7.835600000000001,15.657899043822127
2024-06-18 04:39:25.983575,43.74,-0.1305226801761777,0.00688563913974258,1.0036242732745309,-4.430213913190872,-4.067498921831293,1.4671351331391533,0.4412,7.382599999999999,15.78405975819295
2024-06-18 04:39:26.085532,43.84,-0.120464305098046,-0.0009582982803424801,1.004822627859768,-3.901480319618065,-4.676542563670101,1.0873943413731118,0.0892,6.8616,15.944281605178706
2024-06-18 04:39:26.188064,43.94,-0.1086658501427441,-0.00851600493455114,1.0042166912481736,-3.30847238587546,-4.953088032309699,1.4749917300819888,-0.21680000000000002,6.310599999999999,16.07118613251675
2024-06-18 04:39:24.399174,43.95,-0.13307052994400162,0.09436440581608815,0.9872625650915199,0.8380372538543007,7.157279065369661,5.082679403903834,6.216600000000001,9.0186,10.936705518811706
2024-06-18 04:39:24.552805,44.1,-0.14921511233625612,0.10043074938971719,0.984773656951915,0.25966015392613484,6.08863557294474,3.6962607041340405,6.444,9.673399999999999,11.629222522708476
2024-06-18 04:39:24.654929,44.2,-0.15845138928168676,0.1037448341653768,0.9831875267333301,-0.3944750014340511,5.0777518208005965,3.2830735412238736,6.5164,9.9934,11.97988625330321
2024-06-18 04:39:26.494735,44.24,-0.07325913926390468,-0.02248641983104772,1.0042241020735885,-1.4800192304954287,-5.921824026528495,0.10893241640663273,-0.835,4.3828000000000005,16.249361207514532
2024-06-18 04:39:24.756668,44.3,-0.1661844655250233,0.10564371487518168,0.9829383886492729,-2.588609526825531,2.824312111243709,3.2175777281603204,6.359800000000001,10.098000000000003,12.316125449949869
2024-06-18 04:39:26.596978,44.34,-0.060293496655804746,-0.026130194251725504,1.0049483298362056,-0.4973117287873895,-5.505554990744889,1.1938267398813123,-0.9008,3.7594000000000003,16.330045162551183
2024-06-18 04:39:24.859161,44.41,-0.1712935498965869,0.10649620413648853,0.9901933330779684,-5.822823964973308,1.4578339804788514,3.1031960859432077,5.92,10.124,12.643935446504164
2024-06-18 04:39:26.699173,44.44,-0.04666493135726784,-0.02787968633188964,1.0048797796932445,0.947316477390352,-5.4705083378242225,0.43496028719374535,-0.8312000000000002,3.1247999999999996,16.43254841323126
2024-06-18 04:39:24.960899,44.51,-0.17537067060666547,0.10571164993226174,1.0064788985390722,-6.711546724783654,1.833832576276384,3.2299785200262,5.4484,10.1786,12.969306813841182
2024-06-18 04:39:26.801710,44.54,-0.03242026179494835,-0.028011878961366317,1.0026975955526807,1.9898732560911974,-5.348348802322917,0.3839974625751075,-0.6838,2.4904,16.467191647148404
2024-06-18 04:39:25.062896,44.61,-0.17552925240861503,0.10058277026972302,1.0225161918224717,-6.701519520007897,0.735785582858146,3.687488637126478,4.9799999999999995,10.0996,13.332583816250041
2024-06-18 04:39:26.903825,44.64,-0.018768882371119643,-0.024997341374849498,1.0006873779792056,2.7911516630134945,-5.0573554237949505,2.325095036795251,-0.46560000000000007,1.8780000000000001,16.64485476643978
2024-06-18 04:39:25.165387,44.71,-0.1723280223416393,0.09063186743767956,1.017619582222997,-7.013073842492631,-0.9099505452883137,3.640681945107896,4.4692,9.8718,13.718674986587866
2024-06-18 04:39:27.005945,44.74,-0.00565492375284808,-0.020716644817679642,0.9914612864836496,4.33521912420826,-4.512452459495139,2.093016094547521,-0.09340000000000001,1.3115999999999999,16.86466397546609
2024-06-18 04:39:25.267454,44.81,-0.16958492525181273,0.07972584735480667,1.0053236076468473,-6.691278809159757,-1.099790418390725,3.8295032375913536,3.979,9.6792,14.082852836929295
2024-06-18 04:39:27.108312,44.84,0.00544747304907474,-0.01656199643433916,0.9778672155964134,6.340799930680808,-3.196501250185978,0.8793675317192677,0.4418,0.8587999999999999,17.04450694705079
2024-06-18 04:39:25.369833,44.92,-0.16719470650451354,0.0705920414609115,1.0031197728247978,-6.601145853791,-0.913735363964603,3.9400050500335873,3.4622,9.5062,14.524431924505922
2024-06-18 04:39:27.210307,44.94,0.0179047780350703,-0.0083064854489839,0.9680514214587994,7.307040815987517,-1.8984620806548769,-0.4488059425339008,1.052,0.49060000000000004,17.046400177578267
2024-06-18 04:39:27.517903,45.24,0.038948051565660155,0.035105412830395546,0.9860413628522352,8.531026717625013,1.0782115208834149,-0.9595125290868756,3.2402,-0.11960000000000001,16.996546252511685
2024-06-18 04:39:27.619898,45.34,0.041095364635344175,0.05160077857344436,0.98677596948577,7.098951221539048,0.3134225825208555,-1.164735890891858,3.8587999999999996,-0.3518,16.897518801026465
2024-06-18 04:39:27.722014,45.44,0.04109897522954662,0.06648163097539218,0.9869393451113705,3.281015156207205,1.0411368718646004,-1.0403487712475,4.1457999999999995,-0.4404,16.788782847612534
2024-06-18 04:39:27.824135,45.54,0.04170735720616984,0.08022189809275433,0.9999469803467325,2.0970044511814097,4.303721352295125,-0.9057069231577133,4.4188,-0.2424,16.72324422590993
2024-06-18 04:39:27.926373,45.64,0.03903587898276192,0.09004103170651903,1.0226748845687976,3.656888133356842,3.6650469336563463,-0.07781487353692572,4.8393999999999995,-0.13240000000000002,16.68423806975643
2024-06-18 04:39:28.028366,45.74,0.0351448676740549,0.09631163951832356,1.0278660476267123,4.347592452679839,2.8648575240183103,-0.3935225322828056,5.303399999999999,-0.0824,16.675074105663136
2024-06-18 04:39:28.130658,45.84,0.0316015954918804,0.10222800285799649,1.0149224301334199,4.059843591549008,2.551053373881994,-1.0349909386641598,5.733,-0.0436,16.614835626755212
2024-06-18 04:39:26.341373,45.89,-0.0903208085860672,-0.01695453374388307,1.0048791058024422,-2.413031589904281,-5.731122106650866,0.3502066629883002,-0.5823,5.3653,16.21211918854662
2024-06-18 04:39:28.232934,45.94,0.027983140514592997,0.10928814994892813,1.008557366133293,4.341613205946466,2.800609332296401,-1.6511805975282574,6.2025999999999994,0.029800000000000004,16.47830970842871
2024-06-18 04:39:27.363852,46.91,0.031266898530342924,0.01202745990065903,0.9804980398773745,8.080968947057777,-0.28471006243628977,-0.06287221352868208,2.1023,0.10770000000000002,17.025290116926737
2024-06-18 04:39:29.459009,47.14,-0.02047521318043826,0.2205890734533391,1.0048615556393854,-4.840030319846425,5.0029742013016305,-0.8426994307308782,10.741200000000001,2.0822,16.085838192615768
2024-06-18 04:39:29.561125,47.24,-0.025561348206766244,0.21772426403480982,1.0126132129757237,-2.5750536903893404,4.730025785254313,-0.4345477147692856,10.645199999999999,2.3588,16.047726391504185
2024-06-18 04:39:29.663245,47.34,-0.030441876625130038,0.2100301335592416,1.0048855950418876,-2.653074617976627,4.551410307940459,-1.2272116554675834,10.5052,2.6483999999999996,15.973170123274013
2024-06-18 04:39:29.765232,47.44,-0.037423074570376816,0.2018460191793317,0.9934319436831837,-2.33535951198571,4.50805638653832,-1.4596760138139304,10.4064,2.9381999999999997,15.838896119118811
2024-06-18 04:39:29.867488,47.54,-0.04187264962934096,0.19885420299994797,0.9924788242500867,-1.8650420374608145,4.02739714214696,-0.7641407525449566,10.3352,3.1638,15.743403424886358
2024-06-18 04:39:29.969720,47.64,-0.04600919261077764,0.1950869786372728,0.9907216630072698,-2.3944376122167252,3.7660647028853966,-0.10789812498605023,10.2104,3.3652,15.721447547940068
2024-06-18 04:39:30.071959,47.74,-0.05078351746958156,0.1920182287440535,0.9886966350457531,-2.6474210300599283,3.2527471033726,1.6639078780898218,10.0672,3.5090000000000003,15.809997076738053
2024-06-18 04:39:30.174328,47.84,-0.05373413057119034,0.1901026841237517,0.9824435084243992,-1.7507576761645516,2.653014708159925,0.9563897765079474,10.0382,3.623,15.99162380284183
2024-06-18 04:39:28.386220,47.93,0.02668472176966216,0.12167091760430916,1.0023964127902898,4.374515619760729,1.8742487125156293,-1.0790241709586343,6.8995999999999995,-0.0029,16.305423359254668
2024-06-18 04:39:28.539412,48.09,0.025968998615130877,0.13398582931764816,0.9762555413298738,5.664644754551593,2.1706944168708526,-0.17786301241375835,7.767,-0.0268,16.20744814442222
2024-06-18 04:39:30.480733,48.14,-0.060921969557284315,0.18364022831927485,0.9575794460950547,1.2756984796680828,4.029361916080418,0.22173409910024194,10.585600000000001,4.2604,15.993959781108066
2024-06-18 04:39:28.641818,48.19,0.025554716278556645,0.14412675358422788,0.9552503164364066,5.850978884899666,2.823546292930164,-0.06492908567863152,8.4036,0.023,16.22378839477043
2024-06-18 04:39:30.582849,48.24,-0.06578665346689706,0.18643792687205582,0.9662025909324405,1.360608892732519,4.155308992761279,0.910244117326212,10.798799999999998,4.507600000000001,16.088775517975826
2024-06-18 04:39:28.743813,48.29,0.023792682634427124,0.15664440998806523,0.9638169210441504,5.56553792199836,3.3339767666069484,0.2663360104559848,9.019599999999999,0.1246,16.258693174062394
2024-06-18 04:39:30.685042,48.34,-0.0697798546614262,0.18892355962203272,0.9687931181028416,1.3606137611013889,4.276256095089053,-0.09988980993902692,11.0068,4.7692,16.123697455446937
2024-06-18 04:39:28.846054,48.39,0.02123937604112148,0.16873030843711267,0.9696624788977491,5.315112042816862,3.9333061655539057,-0.06654372648740237,9.619200000000001,0.28819999999999996,16.25573104411201
2024-06-18 04:39:30.787170,48.44,-0.07477328235561036,0.19159648919071165,0.9699583169311948,1.252076911226097,4.451767437587213,-0.09703620695476209,11.204799999999999,5.0452,16.120291981481227
2024-06-18 04:39:28.948171,48.49,0.017301755479029922,0.17886464609250757,0.9713903181884763,4.887599496304445,4.670120970339103,0.22124802377011044,10.1796,0.5256000000000001,16.29984673099066
2024-06-18 04:39:30.889452,48.54,-0.08056744089858996,0.19568153887274342,0.9697437940705825,0.9401699117909874,3.577667790868328,1.2937346402860606,11.3718,5.203399999999999,16.20608870873773
2024-06-18 04:39:29.050540,48.6,0.011839389436307779,0.18996254882510744,0.9720587662051312,4.33695904243549,5.398879091990514,0.461475671994089,10.6942,0.8319999999999999,16.344665858329844
2024-06-18 04:39:30.991817,48.64,-0.08505993530020406,0.19922901880636368,0.9655886640244018,-1.7953461065310798,-0.022314366022983468,1.2866698791589188,11.227799999999998,5.0048,16.351841088595453
2024-06-18 04:39:29.152529,48.7,0.0057766005281688,0.20013889671572263,0.9717510980101981,3.726092137368055,5.968609472035029,-0.5751564343500014,11.1518,1.1898,16.341092146483522
2024-06-18 04:39:31.093938,48.74,-0.0885854944964268,0.20194919523287796,0.9739778615664445,-8.248403102041122,0.3246835885238939,0.4837483589095914,10.501,4.976,16.450835724917653
2024-06-18 04:39:29.254649,48.8,-0.00129293170280574,0.20913753635455867,0.9719640308594194,1.4602558134841916,5.639179832183705,-0.8442288909765854,11.3644,1.5051999999999999,16.275577123234704
2024-06-18 04:39:31.196633,48.84,-0.08929742141898359,0.20014689658489565,1.001854884219965,-7.828410768721426,2.9749951615161527,0.5361149349328929,9.9384,5.1292,16.49780651614347
2024-06-18 04:39:29.356718,48.9,-0.01049192761621478,0.2172274957383641,0.9788791160492203,-4.493673828726719,4.598397521334578,-1.2185477110223322,11.009000000000002,1.761,16.183079269999737
2024-06-18 04:39:31.502978,49.14,-0.08920796661981058,0.16799108752628858,0.9996756778743198,-2.1366946461376175,2.2377095267107605,1.7821794171049778,9.2352,5.1532,16.958391776638514
2024-06-18 04:39:31.604968,49.24,-0.08711155346882113,0.1631868156297205,0.9964618736661436,-0.8558621544904206,1.6887628447379246,0.9416033500354466,9.219800000000001,5.1792,17.108838214104715
2024-06-18 04:39:31.707216,49.34,-0.08484451359108387,0.16100146067381985,0.9948584312404257,-0.5103485430497561,1.4437816697553678,0.9483145812410834,9.225000000000001,5.179200000000001,17.206285351707397
2024-06-18 04:39:31.809577,49.44,-0.08495397201977414,0.1599548565352205,0.9901282445672626,-0.28009186912339995,1.436404739445501,2.055932543392848,9.266,5.173399999999999,17.366502129644054
2024-06-18 04:39:31.911694,49.54,-0.08481296649997054,0.15992649376218,0.9832982619259972,1.4937622987294799,1.8012125529977183,1.959944699656362,9.500199999999998,5.212,17.604869414352386
2024-06-18 04:39:32.013938,49.64,-0.08197505890328585,0.15929801140332955,0.9560257741719539,3.09006976241912,2.648498338081077,1.335554226580431,9.869400000000002,5.312,17.76726551165569
2024-06-18 04:39:32.116111,49.74,-0.08205101249538585,0.16256387864527375,0.9521969442953475,3.6191346845558643,3.1406333632894734,1.8445291499089076,10.276,5.4454,17.926862190789375
2024-06-18 04:39:32.218260,49.84,-0.0843224750107842,0.1694272104555844,0.9612039453948364,3.890512815160585,3.4619598025770366,2.154614541289747,10.702,5.600600000000001,18.168747769739543
2024-06-18 04:39:30.327672,49.87,-0.05614668002107458,0.18548898345191966,0.9568077842923873,0.3872615728566311,3.580273911777911,-0.27279541707411914,10.265699999999999,3.9182000000000006,15.988394209251627
2024-06-18 04:39:32.524648,50.14,-0.09315230119842241,0.19374813403056237,0.9698325188490291,4.009852295476457,3.9480386937518874,0.7015217179393322,12.025400000000001,6.1662,18.561168435437523
2024-06-18 04:39:32.627194,50.24,-0.09534333599792874,0.20659641597580786,0.9694308453593194,4.495542824125506,3.7952442494442438,1.6335004243165674,12.5606,6.3108,18.677691356818592
2024-06-18 04:39:32.729191,50.34,-0.09607789659924097,0.22332901155141088,0.9681221326898376,5.300412189458844,3.6684232100198755,3.116967713984219,13.218800000000002,6.410200000000001,18.955139618462802
2024-06-18 04:39:32.831547,50.44,-0.09757678262966882,0.2411158287018905,0.9656607879950609,6.4100034560914905,3.4201301755991027,3.110819506849522,14.0286,6.455,19.295573224452134
2024-06-18 04:39:32.933502,50.54,-0.1017935830374805,0.2578474445237473,0.9614738131977857,7.939111267668795,2.5585553676986446,2.8029866417719767,15.003000000000004,6.4054,19.589378896253397
2024-06-18 04:39:33.035707,50.64,-0.10217126697676596,0.282037530266622,0.9574170291645085,8.649098815729943,1.5517324240318573,3.047547404986069,16.0742,6.2542,19.898317190524022
2024-06-18 04:39:33.137904,50.74,-0.10379271224752915,0.3015764794877584,0.9538447408355719,6.6726226005490705,1.2983740649677535,2.838471059720558,16.9404,6.100199999999999,20.206661396237983
2024-06-18 04:39:33.239976,50.84,-0.10594261020022802,0.3148266028247527,0.9505656657378884,2.6731405716654892,1.384700794272092,2.6199782790192496,17.397399999999998,5.9719999999999995,20.486210569099256
2024-06-18 04:39:31.349765,50.9,-0.08754680507215096,0.18597380097206015,1.0202347753803256,-4.238704931649657,1.062176538892901,1.4563703130486276,9.4749,5.0496,16.713204050632772
2024-06-18 04:39:32.371505,51.92,-0.08860347128553814,0.18156550242302683,0.9676386292333916,3.993542475332699,3.9021457740590444,1.1908553350728965,11.357199999999999,5.8786000000000005,18.403044187107994
2024-06-18 04:39:34.467377,52.04,-0.14071364686285198,0.1323650779072129,0.972305179724963,-14.02052076567081,4.951059210054732,4.231268894144029,6.483999999999999,8.6838,23.662481424871636
2024-06-18 04:39:34.569494,52.14,-0.14580591578947638,0.10650791398277275,0.9748611665185279,-13.780905339316229,4.3932144759012886,4.327349659485664,5.2698,8.989799999999999,24.0884113284496
2024-06-18 04:39:34.671746,52.24,-0.15231993395019644,0.08093611052565484,0.9766019016015866,-13.144288966898753,4.036755444428359,5.363146150649131,4.115799999999999,9.2894,24.595395005395094
2024-06-18 04:39:34.774353,52.34,-0.15729773198494681,0.05588431451851442,0.9764727074641835,-12.047891791639842,3.73027116863083,6.150066505693918,3.0631999999999997,9.5684,25.19175476490882
2024-06-18 04:39:34.876300,52.44,-0.16075311320285218,0.0371458094722372,0.975971025422669,-10.956456096315625,3.1722760735606643,6.683805445015787,2.1128,9.809999999999999,25.869788186280392
2024-06-18 04:39:34.978586,52.54,-0.16549453599705438,0.016736029073029,0.9758558562399644,-9.902710801930098,2.7720431593465493,8.16698144523442,1.2511999999999999,10.0352,26.61749267260659
2024-06-18 04:39:35.080705,52.64,-0.16960512873923025,-0.00190484304110368,0.975215612520925,-8.864877600809328,2.1524012551058695,8.18340035222719,0.48739999999999994,10.215599999999998,27.458881169646723
2024-06-18 04:39:35.183450,52.74,-0.17094236373747876,-0.01751191463239618,0.9764805343074832,-8.07259114199549,1.6551340778208186,9.839947691622049,-0.1988,10.3572,28.40397410899029
2024-06-18 04:39:33.393528,52.94,-0.10697166733116514,0.32029242458461094,0.9464225584427,-3.106995164445842,2.428017497530505,2.8357474260251196,17.322499999999998,5.9259,20.91931118094579
2024-06-18 04:39:35.489850,53.04,-0.1740241298991821,-0.05249256626060002,0.9782807840340313,-5.055345147737127,0.28054589790782525,10.409090399649461,-1.6283999999999998,10.5892,31.269223894425018
2024-06-18 04:39:33.546952,53.09,-0.10630779159638293,0.3170240897848128,0.9441237788216352,-7.6748633867727065,3.7102880096841986,2.325673222934451,16.656,6.0632,21.342067199820704
2024-06-18 04:39:35.592291,53.14,-0.17399486870407221,-0.05950610204799121,0.979898890011033,-4.555400210324743,0.06906917631058962,9.854653987544093,-1.9738,10.609,32.29013487702997
2024-06-18 04:39:33.649437,53.2,-0.10901119775777054,0.3069401044440056,0.9454953423212504,-9.79360822283354,4.490723093655088,1.419086815138272,15.9112,6.2946,21.530018848038196
2024-06-18 04:39:35.694269,53.24,-0.17398133906313235,-0.06563585339238683,0.9815830765760675,-4.385225227451029,0.028418394465672275,9.927800493804138,-2.2942,10.630999999999997,33.280622188633366
2024-06-18 04:39:33.751720,53.3,-0.11141814679581492,0.2946274535203538,0.9481918012074466,-11.805111090128518,5.02701973680511,1.244690897837152,14.9676,6.5774,21.665577811320095
2024-06-18 04:39:35.796786,53.34,-0.17279991733360717,-0.07026043166733513,0.9820744043674081,-3.9301960420082365,-0.30976352357875847,11.738239109653431,-2.5498000000000003,10.6098,34.40052195650047
2024-06-18 04:39:33.853807,53.4,-0.11383512307060806,0.27591178581883624,0.9523752459751105,-13.153378786291054,4.9379368875002,1.849243644317146,13.8944,6.837999999999999,21.835705314730973
2024-06-18 04:39:35.899096,53.44,-0.17193346132210136,-0.0738747346347884,0.9828511707067363,-3.544215105467214,-1.0429473421402076,10.681477998782082,-2.7697999999999996,10.5208,35.532831870160486
2024-06-18 04:39:33.956090,53.5,-0.11673872298014072,0.2537090757718639,0.95643800076578,-14.413783069179596,4.757040827196537,2.6156577376845527,12.6918,7.078399999999999,22.077873081059103
2024-06-18 04:39:36.001259,53.54,-0.17158342571214438,-0.0764834932258551,0.984156100746565,-2.857960192783891,-1.5008825367191982,10.54648095476227,-2.9061999999999997,10.400400000000001,36.591671234210814
2024-06-18 04:39:34.058405,53.6,-0.1217143202674569,0.2292071948766786,0.959745280091861,-15.136819870685883,4.770060369223051,3.067108950518423,11.418000000000001,7.3376,22.3853342083131
2024-06-18 04:39:36.103375,53.64,-0.16910611269220355,-0.07875474677149925,0.9849150784815045,-1.2378571967631076,-1.333615511792218,11.345578324218115,-2.874,10.305800000000001,37.704276923622096
2024-06-18 04:39:34.160646,53.71,-0.12751614852037396,0.20275063209754768,0.9616434639828213,-14.667243312001114,4.882120879745548,2.918165984341745,10.177200000000001,7.6414,22.696907221271555
2024-06-18 04:39:36.205617,53.74,-0.165061444463026,-0.07982279034818845,0.98504718556528,-0.31726465814613897,-1.1136353202596125,12.636844488991533,-2.779,10.209,38.93900237718194
2024-06-18 04:39:34.262892,53.81,-0.1317994529077876,0.18127421644296682,0.9641886603510663,-14.149974063731587,4.994815661359683,2.6718266610268637,8.9532,7.9798,22.98598686435287
2024-06-18 04:39:34.365212,53.91,-0.13639865110075142,0.156206776225437,0.9683712814935665,-14.32668409243978,5.107075331113047,2.911435802978614,7.699,8.34,23.272452831073693
2024-06-18 04:39:36.512232,54.04,-0.15386620948081967,-0.07086672126924247,0.9870167933158986,0.5807002760784575,-0.47360222789011325,12.38112801571439,-2.2856,9.9498,42.687265832039465
2024-06-18 04:39:36.614263,54.14,-0.15091827289477946,-0.06772097786269111,0.987094451749881,0.9913843445846094,-0.1923680702149108,12.122332445089361,-2.0427999999999997,9.8898,43.914834303076866
2024-06-18 04:39:36.716455,54.24,-0.1486213762187583,-0.06253148355838375,0.9885310136880776,1.2590503191457973,0.07746322549775708,12.275634317276538,-1.77,9.843,45.14877220196115
2024-06-18 04:39:36.818626,54.34,-0.1472944897458474,-0.05714495714272892,0.9896747083209488,1.3627597392933377,0.4902788963667028,12.919644752142077,-1.4853999999999998,9.8276,46.413846268401855
2024-06-18 04:39:36.920743,54.44,-0.14611235137663553,-0.050970841640009576,0.9908861816852907,1.6179024671095648,0.6008788210394138,12.643632714154574,-1.1678,9.8006,47.7251281318948
2024-06-18 04:39:37.022859,54.54,-0.14470914948153338,-0.04401868154365954,0.9922918757702451,2.0930875616997033,0.6161516072017583,12.17997876375148,-0.8,9.7658,48.96248883645105
2024-06-18 04:39:37.124974,54.64,-0.14387139327943682,-0.03764244534875648,0.9931285518069327,2.43611259762791,0.9370274177143061,12.449258722594422,-0.39480000000000004,9.744800000000001,50.20792775812687
2024-06-18 04:39:37.226915,54.74,-0.14309550802245755,-0.02904002840739362,0.9939229204000434,2.271682980308964,1.0396029765812556,12.64397223923612,-0.006199999999999995,9.716,51.47811766951601
2024-06-18 04:39:35.336620,54.88,-0.17346735460444931,-0.03677604746348047,0.9766473115969048,-6.427939998711075,1.1049155649338729,9.091396179810946,-1.0031999999999999,10.5184,29.792958746140755
2024-06-18 04:39:37.534142,55.04,-0.14316171007546524,-0.00672054582972868,0.9957549667264441,1.0047096997718894,2.4765225959829507,13.031394569021023,0.9288000000000001,9.8516,55.33015527056189
2024-06-18 04:39:37.636133,55.14,-0.14340374475133605,-0.00019861300806341999,0.9948971493488596,0.37892878371211347,2.828784100284752,11.88985491954286,1.1644,9.9476,56.567722397952636
2024-06-18 04:39:37.738202,55.24,-0.14566598231957545,0.00542662100322428,0.9940825234335202,0.30469077739260275,2.9730478663671365,12.387146402110208,1.4144,10.0482,57.780065663651975
2024-06-18 04:39:37.840493,55.34,-0.14696799697926016,0.01041450937669684,0.9933689630829399,0.2175294763908731,2.7895289812541058,12.813078599652233,1.6646,10.1234,59.08079632499928
2024-06-18 04:39:37.942859,55.44,-0.14862430140973612,0.01576963762592426,0.9925439125967079,0.2876056813750668,2.858807591843109,13.311754970178317,1.9338000000000002,10.2042,60.39802488033664
2024-06-18 04:39:38.044806,55.54,-0.1505739521296181,0.0201722959726921,0.9919797956954071,0.19610175879624286,3.0680431106624924,12.37944487745582,2.1902,10.3002,61.68920102815706
2024-06-18 04:39:38.146843,55.64,-0.15223351845753744,0.02347850789833206,0.9919862635588521,-0.11254630201514806,3.5747150485874,12.046829275049765,2.4088000000000003,10.439,62.91456393940641
2024-06-18 04:39:38.249216,55.74,-0.15400731926400107,0.026963883106274837,0.9918549818448579,-0.2719695262179614,3.6519694004702252,12.898708806231104,2.6132,10.569400000000002,64.17431863307449
2024-06-18 04:39:36.358980,55.91,-0.15957495320912057,-0.07651113670954363,0.9866328500476276,0.06811985539752378,-0.9565121670224654,12.30033195553483,-2.5728,10.0609,40.781281807349515
2024-06-18 04:39:37.380565,56.93,-0.1430046787253514,-0.018362189498572865,0.9956485830890516,1.4745048256570723,1.7387828633780642,12.574148590353643,0.48619999999999997,9.7458,53.386254041738795
2024-06-18 04:39:40.488967,57.64,-0.16636438982824311,0.0140504712433729,0.9841273779687837,-2.1255815594357377,2.173837120718075,4.694671908348443,1.6009999999999998,11.096,79.35053269726578
2024-06-18 04:39:40.591088,57.74,-0.16674479115829885,0.0102049614877847,0.9853186124265557,-2.3705763966913604,2.096905508338862,3.925376634196509,1.4472,11.142,79.78799384624455
2024-06-18 04:39:40.693200,57.84,-0.16902484459454506,0.00860594875630112,0.986119078896564,-3.0810663179250866,2.222661321725425,3.839349165847409,1.22,11.2096,80.17137096817403
2024-06-18 04:39:40.795150,57.94,-0.16995772780799645,0.0060684728089535804,0.9868556288172124,-3.5411054026695603,1.9825527994505023,3.371108355223709,0.9391999999999999,11.2528,80.55912843859156
2024-06-18 04:39:38.402262,57.95,-0.1582616266426481,0.03398943701298837,0.9893027641534062,-0.6901566134643056,3.488011826852353,12.261830046990976,2.8899999999999997,10.7402,66.07654809131392
2024-06-18 04:39:40.897561,58.04,-0.17000079029014453,0.0020643620479294405,0.9862605944444601,-3.5168821646541724,1.7248425054224892,1.3449897140850147,0.6396,11.2756,80.7987874005192
2024-06-18 04:39:38.555574,58.1,-0.16183243920212073,0.0383625132034949,0.9884681934800368,-0.785552587999151,3.137655033321641,11.820715906877165,3.1512000000000002,10.869200000000001,67.89623450301019
2024-06-18 04:39:40.999808,58.14,-0.16819814434630032,-0.0015867931557141013,0.98536246895883,-3.590064947216809,1.0884457572155124,-0.5277634003599113,0.3122,11.2256,80.82213135933517
2024-06-18 04:39:38.657607,58.2,-0.16407255031340254,0.04213414988824612,0.9870718632872894,-0.38074336327553016,3.3687719492166366,11.69644765123547,3.3684,10.9736,69.08472507141585
2024-06-18 04:39:41.101925,58.24,-0.16689952786652829,-0.005234120398359079,0.9849625153371377,-3.7834731361823053,0.32738848517508945,-1.7076918869990112,-0.047,11.104000000000001,80.70865180712904
2024-06-18 04:39:38.784851,58.33,-0.1657504084837083,0.04428273779216938,0.9868187394938305,-0.08945235251201898,3.4983122228082513,11.629329517856322,3.6068,11.0986,70.27383729439065
2024-06-18 04:39:41.204110,58.34,-0.16670846874105663,-0.011822244777857798,0.9849931213577703,-3.563529432439521,-0.2624439757038634,-2.9376981142083576,-0.4138,10.9302,80.47782585208952
2024-06-18 04:39:38.895301,58.44,-0.17047976553656183,0.04690601292506566,0.9861672602120557,-0.6440397186178342,3.0984669260556164,10.350151526670295,3.7502000000000004,11.198800000000002,71.36976265574475
2024-06-18 04:39:39.055034,58.6,-0.1734755957947023,0.05066049910628826,0.9862080443818609,-1.4996811405114863,2.8311355502559903,8.72731183370493,3.7968,11.3098,72.32995346636949
2024-06-18 04:39:41.510836,58.64,-0.15621236404020727,-0.03313395562651508,0.9870744155755006,-4.5246300540115865,-0.3071700047152587,-5.1123921161731385,-1.8445999999999998,10.383,79.2951904642259
2024-06-18 04:39:39.164781,58.71,-0.17424593264745752,0.05308059611228984,0.9851044782354583,-1.821952692298026,2.651998054470881,7.017356013267154,3.7946,11.371799999999999,73.09785288589954
2024-06-18 04:39:41.612794,58.74,-0.15124691394653525,-0.040097338614874425,0.9865835938172823,-4.199167525324593,-0.7143210454713419,-5.608084720142457,-2.3102000000000005,10.1476,78.73910101127854
2024-06-18 04:39:41.714836,58.84,-0.14708066192676733,-0.046635619784067966,0.9858512249264593,-3.6674962262453557,-1.1155589778923032,-6.38394438642389,-2.7272,9.869600000000002,78.1684242143936
2024-06-18 04:39:39.351395,58.9,-0.17514947942889286,0.05305860171849286,0.98521730015219,-2.221918561370264,2.3349278065903984,6.314204157867332,3.6957999999999998,11.411600000000002,73.7662233673723
2024-06-18 04:39:41.817075,58.94,-0.14222106897000514,-0.055291735545690016,0.9851984253516889,-2.7156698093906613,-1.619126967754187,-7.495315887682869,-3.0685999999999996,9.5392,77.46712990382903
2024-06-18 04:39:41.919237,59.04,-0.1356465228293061,-0.06325207459851942,0.9865192011643904,-2.42106711719861,-1.797921325513953,-7.331218658567744,-3.4120000000000004,9.1884,76.73474401467571
2024-06-18 04:39:39.521378,59.07,-0.17604377569490168,0.05247108438818332,0.9859672744684218,-2.657857637019585,1.9851425481309666,5.753498259920621,3.522,11.4022,74.37907819237755
2024-06-18 04:39:42.021350,59.14,-0.12830067298084818,-0.06953695311145794,0.9888748336987255,-2.263129318485265,-1.559907469787094,-8.51015359863985,-3.7534000000000005,8.8466,75.94135591051172
2024-06-18 04:39:39.671744,59.22,-0.1766521080152037,0.0500645460876898,0.9860250815428209,-3.262407149155171,1.2698305063617172,6.356864167703564,3.2845999999999997,11.320400000000001,74.98292716326117
2024-06-18 04:39:42.123352,59.24,-0.1208711014215806,-0.0752149458672636,0.9896842591944802,-2.2392488133874946,-1.1211800342808633,-9.49433669771195,-4.0976,8.532,75.06522490400833
2024-06-18 04:39:39.774108,59.32,-0.1760039856129923,0.04701306677030772,0.9859985656411396,-3.6902335651499265,0.9245902713390558,6.2149891152247125,3.059,11.2316,75.65426664726894
2024-06-18 04:39:42.225043,59.34,-0.11462143796484829,-0.07980230521145812,0.989142779242423,-2.27594173188771,-0.8827475848411451,-11.560584625047024,-4.4638,8.212,73.99348390751828
2024-06-18 04:39:39.876356,59.42,-0.17368762579538805,0.04309332057934068,0.9859994141876616,-4.188179907124602,0.8162835423615931,5.320989218280655,2.7972,11.143200000000002,76.20225772438414
2024-06-18 04:39:39.978461,59.52,-0.17161741267153297,0.03885427474000216,0.9855769854468154,-4.242593013599577,1.2633359284040029,6.664541581076868,2.5328000000000004,11.1042,76.8523603389209
2024-06-18 04:39:40.080879,59.63,-0.169170174330827,0.03359259522242594,0.9844655402735256,-4.05740377888414,1.5465495076571136,5.008624170106882,2.2812,11.077200000000001,77.42826962573216
2024-06-18 04:39:42.530638,59.64,-0.08915157451993808,-0.09797291759495155,0.9883633453564983,-2.394739156591195,-1.0982255885911123,-10.985936461067784,-5.6122,7.1324,70.63738103839333
2024-06-18 04:39:40.182991,59.73,-0.16719276082900167,0.029135085202540455,0.9833188702711928,-4.034820423041751,1.1933640612624097,4.500812198605855,2.0256,11.0176,77.90359768492029
2024-06-18 04:39:42.632752,59.74,-0.08270656550363129,-0.10234439013802607,0.9888085628199352,-2.1903548806192648,-1.2742339035987462,-10.352914324902256,-5.9278,6.726000000000001,69.58948389660404
2024-06-18 04:39:40.285060,59.83,-0.16776875787586165,0.02350772362811942,0.9846243895724089,-3.5996149378007827,1.5066905161226463,4.588230296979103,1.815,11.0118,78.36822102953802
2024-06-18 04:39:42.734744,59.84,-0.0759820969863986,-0.10640459698542352,0.9900185361342301,-2.286104208523287,-1.2698061596367434,-10.202359720141207,-6.244400000000001,6.3242,68.58217978217385
2024-06-18 04:39:40.386725,59.93,-0.1672667036949805,0.019664284483649038,0.9835640010131037,-2.6361570845796183,2.050014262594989,4.863697184660177,1.6986,11.0528,78.8560168030609
2024-06-18 04:39:42.836363,59.94,-0.06798591211383671,-0.11024045033913361,0.990130460035872,-2.558689136108284,-0.5656708094439169,-11.34717880190237,-6.578,5.9807999999999995,67.51997059211212
2024-06-18 04:39:42.938310,60.04,-0.06310090599762061,-0.1155018238625342,0.991509099724748,-2.4313405227873113,0.11602509624945274,-11.69088070104127,-6.885800000000001,5.7,66.3623721776747
2024-06-18 04:39:43.040472,60.14,-0.056391125615125624,-0.12145399651280375,0.9914737500759179,-2.126631708348281,0.44678711004364946,-11.617210877724373,-7.1658,5.434399999999999,65.21278915372224
2024-06-18 04:39:43.142713,60.24,-0.05057067749526698,-0.12594628423052484,0.9909735969143408,-1.6990545178586605,0.23550441481776124,-10.495054997604381,-7.392999999999999,5.1488,64.12944909712697
2024-06-18 04:39:43.244666,60.34,-0.04630332221587402,-0.12888269209800335,0.9909888696142698,-1.4039190199908695,0.5126189168722489,-10.758276116129224,-7.582800000000001,4.9068,63.07422657289608
2024-06-18 04:39:41.357348,60.9,-0.16303371600744776,-0.02243473694830244,0.9858108193686967,-4.240362600381394,-0.47088012098552234,-4.007818884126083,-1.0984,10.653100000000002,79.92770152147884
2024-06-18 04:39:44.470788,61.54,-0.045731710393768464,-0.11658268102074573,0.9956506440253825,2.0922902963743883,3.7178679102248955,-12.574070799147911,-6.7842,5.086799999999999,50.05738694549903
2024-06-18 04:39:44.572805,61.64,-0.047291811658203196,-0.11280995255370793,0.996096735131046,2.0209204595859527,3.6135968812011328,-12.728293463634927,-6.614199999999999,5.1338,48.8000092608551
2024-06-18 04:39:44.675220,61.74,-0.048912328399682,-0.10914108351419663,0.9955777771663474,2.543078455630824,3.4066259091751503,-12.730065397060176,-6.3914,5.164999999999999,47.54178799377139
2024-06-18 04:39:44.777840,61.84,-0.0505612941053332,-0.10560845472189798,0.9949844206988047,2.8902317824565023,2.8283847267086166,-12.913624124208397,-6.1411999999999995,5.1452,46.267316758473626
2024-06-18 04:39:42.377864,61.92,-0.10242141815901928,-0.08791013001233591,0.9895392125684948,-2.7285174610943983,-0.84522824212024,-11.254065095777348,-5.0681,7.702399999999999,72.27248274529924
2024-06-18 04:39:44.879831,61.94,-0.051959855995142926,-0.10131616474988706,0.9952514249647813,3.2554631204341966,2.450252781140694,-12.598416128682597,-5.851799999999999,5.108,45.0053648618542
2024-06-18 04:39:44.982074,62.04,-0.05214205411855496,-0.09619105567026005,0.9967702503672491,3.1388279491216684,1.9424714830824825,-12.632340630866599,-5.5764,5.0226,43.76084162862168
2024-06-18 04:39:45.084188,62.14,-0.05351891621639504,-0.08972562695578756,0.997064889460197,3.040469355474071,1.5157761560242513,-12.78279406934203,-5.298399999999999,4.9194,42.49717641594626
2024-06-18 04:39:45.186608,62.24,-0.052804151626955564,-0.08516436641544543,0.9974235750480818,3.0796399169294757,1.5320434507850775,-12.753247251420065,-5.0124,4.8256,41.23513921352118
2024-06-18 04:39:45.493295,62.54,-0.04714033471181815,-0.06742678752208536,0.9989313653839382,3.128309548439021,1.9493820201175134,-11.302369035952424,-4.0760000000000005,4.6084,37.427881043399104
2024-06-18 04:39:45.595239,62.64,-0.04615941573102032,-0.06136050155909223,0.9998022339858161,2.634189614149622,1.9948665599011257,-11.961162760195009,-3.8239999999999994,4.562,36.2868099647401
2024-06-18 04:39:45.697654,62.74,-0.04476286260360044,-0.055539846571483885,1.0006377082296625,2.127820556890302,1.6592152593152214,-12.697140796032993,-3.6198,4.4804,35.06750118510199
2024-06-18 04:39:45.799687,62.84,-0.04419272546955638,-0.0512697586166761,1.0012965379249414,1.394673288800567,0.9992336252542013,-12.757649414820301,-3.479,4.3414,33.77482459881973
2024-06-18 04:39:45.901929,62.94,-0.04468408430583766,-0.04703920534016472,1.001839911963445,0.9438631411864332,0.7235726886854504,-12.26595919796608,-3.3699999999999997,4.197,32.5705122037152
2024-06-18 04:39:43.397767,62.94,-0.03956013401802345,-0.1322348928557613,0.9905913994484761,-0.6653257404466154,1.4305346300774948,-9.575263306819544,-7.756600000000001,4.6563,61.6283266503077
2024-06-18 04:39:46.004050,63.04,-0.04302338743833494,-0.04415941190797206,1.0010890899114044,0.7051804114796252,0.6989622957337948,-12.771812870782899,-3.2732,4.0572,31.324853403032627
2024-06-18 04:39:43.550944,63.1,-0.03398483925111922,-0.13590748821964027,0.9893625744321211,0.28455286917336403,2.5630169149863233,-10.24644791342848,-7.8048,4.5367999999999995,60.15677138244156
2024-06-18 04:39:46.106290,63.14,-0.039711016293274434,-0.042377553166011585,1.0002053779956406,0.8120100137128194,1.0267875371092612,-12.095073197842032,-3.1634,3.947,30.071798841438984
2024-06-18 04:39:43.653196,63.2,-0.0324600311204508,-0.13668532040110254,0.9889633870521924,0.6622780281279519,3.159128954084815,-10.63465403855364,-7.789199999999999,4.5282,59.12178903732895
2024-06-18 04:39:46.208530,63.24,-0.037645624330742304,-0.041927647644492604,0.9999619811447802,0.8265806841221528,1.5942128097575394,-13.270900681393977,-3.0688000000000004,3.8899999999999997,28.84753184261117
2024-06-18 04:39:43.755257,63.3,-0.03197002078328696,-0.13574757428866352,0.9893872005759524,1.1180999961252371,3.636321811278119,-10.556976273175673,-7.7294,4.558400000000001,58.058848585675285
2024-06-18 04:39:43.857585,63.4,-0.03198960313012048,-0.13461346660569257,0.9908520492780257,1.3162636072734801,4.053622997630065,-10.294649961168979,-7.651999999999999,4.622400000000001,57.05296873088615
2024-06-18 04:39:43.959577,63.51,-0.03202030023987611,-0.13228831077470354,0.9910655143712355,1.4614584489651896,4.261313348250487,-10.86536474450599,-7.5506,4.7021999999999995,55.99344395741575
2024-06-18 04:39:46.514833,63.54,-0.036028236577140736,-0.038274430796793504,1.0008351586500912,0.1695046805864512,2.182246879934052,-14.01816128179513,-2.9436,3.8566000000000003,24.673021542411437
2024-06-18 04:39:44.061824,63.61,-0.03320037417760108,-0.12950427464945566,0.9915990499073544,1.6437446155674613,4.266029794021554,-11.214812958137497,-7.4358,4.7787999999999995,54.90239400070389
2024-06-18 04:39:46.616837,63.64,-0.03675306963476592,-0.03715254174898382,1.0002620870128534,0.11291691378673159,2.489273130468329,-14.62372357492686,-2.9137999999999997,3.8897999999999997,23.23428239281849
2024-06-18 04:39:44.163814,63.71,-0.03660513181135796,-0.12659727148942468,0.9924548579548584,1.6550396973318304,4.398813619742011,-12.015497034787984,-7.3153999999999995,4.872400000000001,53.74463295076258
2024-06-18 04:39:46.719203,63.74,-0.036437580181823595,-0.03756265245164306,0.9993629165703023,-0.24448435693043433,2.9827860142481177,-14.65348678081466,-2.9294000000000002,3.967399999999999,21.783809527360734
2024-06-18 04:39:44.266179,63.81,-0.04087561583903696,-0.12414858426176664,0.9930212411578889,2.27360814018894,4.361440646030347,-12.412357901019934,-7.1362,4.9682,52.527783665368666
2024-06-18 04:39:46.821234,63.84,-0.036393114706019206,-0.03845580181119324,0.9981162073485619,-0.5528321819211287,3.3901303209443783,-14.657849472247795,-2.977,4.0744,20.328918332761376
2024-06-18 04:39:44.368675,63.91,-0.04338719340752664,-0.12126237679581556,0.9934135345162008,2.4743297972177416,4.004286220793564,-12.448527082647573,-6.946000000000001,5.034999999999999,51.29506455920689
2024-06-18 04:39:46.923601,63.94,-0.03633652760799094,-0.03902219903733108,0.997234267109967,-0.6051638669757586,2.799817085051589,-14.617017040906195,-3.0232,4.0968,18.87725929179735
2024-06-18 04:39:47.025596,64.04,-0.032057628024791035,-0.03901355569600663,0.9987882769095634,-0.20738271216073795,0.8036984377714564,-13.972082216472604,-3.0134,3.8914,17.457408625899394
2024-06-18 04:39:47.127962,64.14,-0.02343835439298974,-0.03902575618900882,0.9998385108611266,-0.14719991551360173,-2.015842394255491,-12.554814698516708,-2.9944,3.3890000000000002,16.156921356654628
2024-06-18 04:39:47.229830,64.24,-0.01878835984125276,-0.04080016716515708,1.0006383888846837,-0.17113401241096307,-4.3935019938955575,-10.878325745516703,-2.9774000000000003,2.7012,15.006057864129328
2024-06-18 04:39:45.339782,64.89,-0.04959957992690938,-0.07708245665374897,0.9980798251951236,3.5198572775287524,1.6748610217635345,-13.207700318570017,-4.5257000000000005,4.6981,39.294160761187854
2024-06-18 04:39:48.456361,65.44,0.10525573638098903,-0.01111565855858376,0.9971772958011907,0.7419737448011008,-1.5180177267651114,0.3117982543932999,-1.5276,-4.7376,8.502131686693694
2024-06-18 04:39:48.558351,65.54,0.11150187642442437,-0.00836673180806212,0.9958962114620883,0.8701544342478045,-0.8875415102399418,0.6848539384153663,-1.4006,-4.9702,8.559235423074655
2024-06-18 04:39:48.660594,65.64,0.11562515110881402,-0.00447977903460464,0.995070460283868,0.825763562222616,-0.15013177346985174,1.5513586267115627,-1.2840000000000003,-5.1302,8.692542708317998
2024-06-18 04:39:48.762544,65.74,0.11804351122327064,-0.0014428766619751,0.9943701328217276,0.9027932003350065,0.7831442841424497,2.324122605817506,-1.158,-5.1934,8.907082226655373
2024-06-18 04:39:48.864827,65.84,0.12066676553209259,0.0009793101705020601,0.9939672602081551,0.7583933945859722,1.7914092020244172,3.7933390509898586,-1.0532,-5.1692,9.225083259771191
2024-06-18 04:39:46.361571,65.91,-0.03634419109909735,-0.041185780366060284,1.0000661458062994,0.3283185022014209,2.073853105612657,-14.133501337991445,-3.002,3.8655000000000004,26.719875443473015
2024-06-18 04:39:48.967198,65.94,0.12181389682841917,0.00231521075569952,0.9939924513539997,0.7230212264443683,2.7036391105060384,4.302084203651764,-0.952,-5.0632,9.664388289316989
2024-06-18 04:39:49.069313,66.04,0.12053197826048656,0.0032569485810605,0.9940016571365419,0.8542055037939018,3.5046559224663114,5.306410432698954,-0.8438000000000001,-4.8852,10.166868621524369
2024-06-18 04:39:49.171305,66.14,0.1173880856297083,0.004816122086001599,0.9939816075001792,0.7977974116379457,4.030021919433459,5.824755642367972,-0.7536,-4.6602,10.750148901736065
2024-06-18 04:39:49.477280,66.44,0.10304682497661781,0.011583130860071459,0.9932568812941088,0.7642395450222401,5.330921866496743,6.322496340093681,-0.44020000000000004,-3.7399999999999998,12.499719328379674
2024-06-18 04:39:49.579601,66.54,0.09613826167652081,0.0131067008858658,0.9938517576183784,0.45563586353623264,5.709543617541373,6.857261868543112,-0.36939999999999995,-3.3486,13.176538740491509
2024-06-18 04:39:49.681643,66.64,0.0825751341156426,0.01309395338241956,0.9930891088330778,-0.4865456430269465,7.163190895651136,7.863406564771442,-0.4076000000000001,-2.7722,13.945864546259156
2024-06-18 04:39:49.783633,66.74,0.05141047113955368,0.0010925868953778801,0.9922050353591139,-2.4493941114382123,10.571675478244442,6.512020933595892,-0.6686,-1.7324000000000002,14.660314247520812
2024-06-18 04:39:49.886000,66.84,0.02790263374851698,-0.00532606524542424,0.9911157904194191,-3.5035314624250278,15.631103019614832,7.712428490181203,-0.9975999999999999,-0.13239999999999996,15.390830803109372
2024-06-18 04:39:47.383011,66.93,-0.014190993519927229,-0.04408291322940085,1.000369573757182,0.5432881760702862,-6.352326420200496,-10.505460436217206,-2.8659,1.5202,13.44639359586332
2024-06-18 04:39:49.987991,66.94,0.005489868209153639,-0.0063259490026024,0.989972275495021,-3.582940274209657,20.929041804272465,7.172208605926509,-1.2688,1.9354,16.14647396304856
2024-06-18 04:39:50.090237,67.04,-0.01436281532630716,-0.0057388653238267,0.9903703817983096,-3.3776085935521296,24.13650665270716,7.758789345455218,-1.4600000000000002,4.207800000000001,16.903536664616094
2024-06-18 04:39:47.536132,67.08,-0.0017142885720235596,-0.04307670265518896,1.0009160855797141,1.067386031859988,-7.5093587867729905,-8.512721819042742,-2.6774,0.2604,12.00019659198802
2024-06-18 04:39:50.192227,67.14,-0.03816388509540416,-0.01409098532572274,0.9927540746938346,-3.6660527487377506,25.562250423417773,8.134072952698933,-1.6666,6.5244,17.71366462080566
2024-06-18 04:39:47.639003,67.19,0.01102127715013002,-0.03984888475382576,1.0017950634480575,0.880102263319316,-7.814556821537454,-8.329337306160625,-2.5488,-0.602,11.184485821923449
2024-06-18 04:39:47.741414,67.29,0.02716370611823684,-0.03644938215891415,1.0020378281185378,0.671260897792165,-7.380581140124592,-7.224695655009185,-2.4362000000000004,-1.4186,10.419867826992206
2024-06-18 04:39:47.843407,67.39,0.044198911373361,-0.03316323035890856,1.002425424625921,0.42983271198592365,-6.588391913471137,-5.402297047529253,-2.3440000000000003,-2.1612,9.805834992188755
2024-06-18 04:39:50.498829,67.44,-0.145376161413852,-0.01489131169190438,0.9916432217830179,-6.102058785618541,25.744713846703604,5.185946802024345,-2.3975999999999997,13.4632,19.798673222010233
2024-06-18 04:39:47.945658,67.49,0.059844850463277276,-0.029355853842023594,1.0024896483865315,0.6321931795085186,-5.290536221342822,-3.878494591797162,-2.2201999999999997,-2.7792000000000003,9.395951087586884
2024-06-18 04:39:50.601193,67.54,-0.19178427824912692,-0.02445084659731636,0.9836872633093364,-6.28202995987917,24.648858128653195,4.57068989225069,-2.7220000000000004,15.6574,20.27329168311927
2024-06-18 04:39:48.047889,67.59,0.07233311857353711,-0.02500141193774516,1.0010341803549576,0.9253309228618983,-4.118752952306102,-3.5780062270086574,-2.0709999999999997,-3.3076,9.030494982194538
2024-06-18 04:39:50.702938,67.64,-0.2355752496204832,-0.03543400540340981,0.9735397755471855,-5.893090928853001,23.25657747598644,2.9318732056852257,-3.0397999999999996,17.7444,20.673045643552115
2024-06-18 04:39:48.149883,67.7,0.08235419707716486,-0.02253481186031344,1.0001709171301312,0.8985912357283968,-3.2272549757922446,-1.9994086355750962,-1.9306,-3.7538000000000005,8.764896724937014
2024-06-18 04:39:50.804933,67.74,-0.27650935070389876,-0.04716845027479481,0.9626208483137069,-5.758522904386422,21.66907034880327,1.2999990552023022,-3.3942,19.6982,20.862112445522445
