Timestamp,ideal_time,ideal_time.1,AccX,AccY,AccZ,AsX,AsY,AsZ,AngX,AngY,AngZ
31:53.0,0,18,0,0,0,0,0,0,0,0,0
31:54.0,1,19.45881548,0.000221009,-0.000231394,0.999985806,0.499451076,0.280018772,-0.010426452,0.171180249,0.085710391,-23.35317283
31:55.0,2,20.43999017,-0.004012765,0.006729591,1.000276424,0.49910362,0.307780616,-0.005062572,0.73090346,0.442266577,-23.24137694
31:56.0,3,21.42000894,-0.003720704,0.006450294,1.000237589,-0.110435013,-0.120371517,-0.204472244,0.70016974,0.417643375,-23.14421821
31:57.0,4,22.4000015,-0.001499905,0.003249675,0.999983905,0.789892174,0.514139837,0.062742998,0.736659344,0.437163245,-23.11501358
31:58.0,5,23.38000016,-0.003597162,0.005876497,0.99993856,0.372418989,0.215167916,0.394362084,0.807967198,0.482289264,-22.99555216
31:59.0,6,24.36000001,-0.003971412,0.008083047,1.0000636,-0.253285201,-0.215618371,-5.271633639,0.53211901,0.357317115,-24.98679053
32:00.0,7,25.34,-0.002912668,0.005046145,1.000109943,0.270335577,0.115326218,-1.212611613,0.462708284,0.264059334,-26.80436926
32:01.0,8,26.32,-0.005537113,0.006518759,1.001279275,-0.827603709,-1.379790745,1.173176679,0.246363522,0.084809981,-27.56116567
32:02.0,9,27.3,0.00339427,-0.001861211,1.000345624,0.848760758,1.243399205,3.448615682,0.299911124,0.114854785,-23.20580377
32:03.0,10,28.28,-0.002081561,0.005115708,0.999848587,0.395193114,0.332635062,-0.01165405,0.392484357,0.216414194,-22.15656106
32:04.0,11,29.26,-0.00386104,0.006845308,0.999984555,0.007425402,0.00825108,0.000208299,0.447886848,0.251891734,-22.01936877
32:05.0,12,30.24,-0.003881398,0.00696265,0.99999897,-0.027941278,-0.014353227,0.000889677,0.437056267,0.249132819,-21.89557992
32:06.0,13,31.22,-0.000463118,0.002423997,0.999999977,0.767617079,0.492536747,-0.009389816,0.536385736,0.293352706,-21.77764499
32:07.0,14,32.2,-0.004179837,0.007161492,1.000000006,0.323165776,0.173390097,0.016017561,0.726751503,0.423494059,-21.65590487
32:08.0,15,33.18,-0.003980315,0.006966808,1.000000001,-0.021672244,-0.014678679,0.001544949,0.640941669,0.37384665,-21.52956038
32:09.0,16,34.16,-0.002204346,0.005068311,1,-0.026757537,-0.01740955,0.0122493,0.479365192,0.270744857,-21.40090059
32:10.0,17,35.14,-0.001764834,0.004369544,0.999999995,0.283411819,0.17636337,0.00433596,0.484179056,0.255004874,-21.27628683
32:11.0,18,36.12,-0.002169163,0.005207132,0.999999953,-0.002901529,-0.002785793,0.001681586,0.398234722,0.202702688,-21.14430891
32:12.0,19,37.08,-0.004064943,0.007078217,0.999999868,-0.285947724,-0.234722971,0.013018865,0.249102201,0.093639546,-21.02616977
32:13.0,20,38.06,-0.003859875,0.007003156,1.00000214,0.021734924,0.01984878,0.012520487,0.310253331,0.147131017,-20.89694277
32:14.0,21,39.04,0.000304759,0.000296427,1.000051964,0.528172925,0.307521598,0.006468171,0.328557657,0.150876109,-20.77247361
32:15.0,22,40.02,-0.004657229,0.007602856,1.000662915,-0.10381552,-0.140333526,0.025119052,0.506480095,0.294533033,-20.64768963
32:16.0,23,41,-0.00632917,0.009492341,1.009270329,-4.608603644,-2.616337866,0.136644678,-0.181779802,0.061195131,-20.54527542
32:17.0,24,41.98,0.148087129,-0.132876255,0.959403873,3.017869948,-1.572004624,1.058789946,-6.657956034,-8.137772098,-19.45519092
32:18.0,25,42.96,0.083297035,-0.009152254,0.993270866,7.896839142,8.037714336,1.630779755,0.656761069,-3.407037062,-17.90010889
32:19.0,26,43.94,-0.047636195,0.081027421,0.997585061,-3.911378028,0.440016896,2.408818896,3.515764117,2.242021676,-16.28407377
32:20.0,27,44.92,0.000624045,-0.004843342,1.004529172,1.205731071,0.438733036,0.679389274,0.332496381,0.118795007,-14.00640216
32:21.0,28,45.9,-0.001403477,0.00222196,1.00057948,0.445986949,0.132726349,0.167530725,0.361911897,0.154025927,-13.31008805
32:22.0,29,46.9,0.000890051,-0.000158527,1.000254042,0.088463891,0.047999012,-0.001227601,0.14105887,0.002662651,-13.17227192
32:23.0,30,47.88,-7.75E-05,0.000983744,0.999998,0.049671388,0.032447797,0.006556189,0.152447816,0.008534277,-13.04562763
32:24.0,31,48.86,-0.002044388,0.006069623,0.999995741,0.006110523,0.0065827,0.000882863,0.198705774,0.034644257,-12.92060614
32:25.0,32,49.86,-0.000491303,0.00299831,0.999922718,-0.596736598,-0.396829576,0.038067726,-0.075378317,-0.151715709,-12.7849792
32:26.0,33,50.84,3.98E-05,0.001127332,1.00000708,-0.204579204,-0.136706251,-0.002431426,-0.139244514,-0.200169586,-12.65276856
32:27.0,34,51.84,-2.15E-05,0.002054985,1.000002166,0.009310089,0.00643791,-0.000962774,-0.022272097,-0.118634366,-12.53032906
32:28.0,35,52.82,-0.003881707,0.007899176,1.000004668,-0.076319037,-0.045438744,0.034005885,0.207510171,0.043871837,-12.40231622
32:29.0,36,53.8,-0.000850117,0.003864359,1.000021774,-0.087243415,-0.045550495,-0.00612865,0.081036691,-0.036288588,-12.25631241
32:30.0,37,54.8,-7.48E-06,0.001098348,0.99998379,0.746477011,0.49351466,0.005745238,0.549288838,0.271392205,-12.15183401
32:31.0,38,55.78,7.77E-05,0.001342277,1.000001092,-0.048819806,-0.032547862,0.00780405,0.39187591,0.16558647,-12.02569147
32:32.0,39,56.76,-0.003284487,0.006912023,1.000000377,0.012279775,0.008709072,0.003894581,0.331632936,0.13074777,-11.90351107
32:33.0,40,57.76,-0.001104184,0.003802874,1.000000046,-0.501426211,-0.335339112,0.006434873,0.088033375,-0.02971949,-11.7703886
32:34.0,41,58.74,-4.20E-05,0.001133997,1.000000044,-0.046428825,-0.007798376,0.018514802,0.02973025,-0.074291661,-11.65272552
32:35.0,42,59.74,8.91E-06,0.00172563,1.000000675,0.001248407,3.72E-05,0.012586185,0.059992178,-0.053073052,-11.51726527
32:36.0,43,60.72,-0.003931424,0.007618672,1.000007892,0.011680023,0.007241139,0.000257816,0.239298446,0.073263502,-11.38843825
32:37.0,44,61.7,-0.000723651,0.002953247,1.000092069,0.370382779,0.255888163,-0.003293066,0.373613167,0.171036826,-11.26236161
32:38.0,45,62.7,-5.87E-05,0.001116416,0.99996765,0.662833951,0.424559604,0.001811122,0.638121357,0.345994665,-11.14712269
32:39.0,46,63.68,9.56E-05,0.001287957,0.999998761,-0.034971065,-0.022401293,0.023758833,0.367603842,0.160166389,-11.02028636
32:40.0,47,64.68,-0.003721113,0.007530908,1.000008843,-0.138569666,-0.088774385,0.000171855,0.309558657,0.125038458,-10.88661159
32:41.0,48,65.66,-0.0004718,0.0023999,1.000131948,-0.399688257,-0.274434836,-0.04624317,-0.047294131,-0.113528398,-10.76296326
32:42.0,49,66.64,-2.23E-05,0.001093597,0.999967825,-0.193277271,-0.128119492,0.021090087,-0.096922122,-0.152139117,-10.66691391
32:43.0,50,67.62,8.89E-05,0.001526577,0.999997725,-0.003820612,-0.002314037,0.003280868,0.006121172,-0.085009705,-10.53934784
32:44.0,51,68.6,-0.003947642,0.007470181,0.99999994,-0.175793979,-0.111310573,0.025101807,0.175171805,0.036141057,-10.41051954
32:45.0,52,69.58,-0.000232598,0.001708852,1.000000011,-0.374619404,-0.263031313,-0.105617952,-0.107983896,-0.16356419,-10.29054122
32:46.0,53,70.56,-1.42E-05,0.001065307,1.000000002,-0.181500019,-0.122942708,0.020226323,-0.125144645,-0.178141064,-10.20638369
32:47.0,54,71.54,5.23E-05,0.001084485,1,-0.001887489,-0.001212948,0.008090226,-0.004683671,-0.093232152,-10.08092019
32:48.0,55,72.52,-0.003592822,0.007296027,1,-0.05757114,-0.034720708,-0.002435259,0.163531255,0.028265038,-9.958331902
32:49.0,56,73.5,-0.001066287,0.003061274,1,-0.537188196,-0.359478988,-0.074901594,-0.10130923,-0.148920192,-9.844550545
32:50.0,57,74.48,-3.75E-05,0.001101248,1,-0.1904459,-0.12744475,0.028563394,-0.140445655,-0.180231449,-9.758842462
32:51.0,58,75.46,-4.38E-05,0.001626121,1,0.005412942,0.003507926,0.001614089,-0.010831752,-0.091884848,-9.625643296
32:52.0,59,76.44,-0.003695776,0.007015087,0.999999995,0.013949616,0.008669404,0.007844692,0.190516443,0.051798705,-9.502731194
32:53.0,60,77.42,-0.001480074,0.003735957,0.999999913,-0.538573641,-0.375353654,0.021530705,0.011276613,-0.074962596,-9.380111465
32:54.0,61,78.4,-4.26E-05,0.000525083,0.999999036,-0.057723679,-0.031802955,0.019986024,-0.032905544,-0.10728991,-9.176916315
32:55.0,62,79.38,4.82E-05,0.001158611,0.999992817,0.005279432,0.002234204,0.008517435,0.022835361,-0.068987614,-9.050385552
32:56.0,63,80.36,-0.001694407,0.004680182,0.999980939,0.020851982,0.007662428,0.00962228,0.142256635,0.016371589,-8.921130214
32:57.0,64,81.34,-0.000300605,0.001382831,1.000439346,0.236052035,0.136093543,0.091854836,0.229008262,0.086490266,-8.768866283
32:58.0,65,82.3,0.003744937,-0.005349624,1.021150597,-4.635039048,-1.69624488,3.310214294,-0.724286905,-0.212255432,-8.126248957
32:59.0,66,83.28,0.055521581,-0.11721745,1.001890202,-6.075166646,-3.985227636,6.490102363,-7.022096754,-3.244418116,-2.389026371
33:00.0,67,84.26,0.102638047,-0.169356063,0.95419094,10.31046527,0.506734026,2.271255472,-7.139486497,-5.296952169,3.317552694
33:01.0,68,85.24,0.046021636,0.006727612,0.981832282,4.233307019,-2.546684198,-4.550715726,1.233038544,-3.106814983,4.288109804
33:02.0,69,86.22,0.14517738,0.006811382,1.000345546,-1.938277785,3.440401298,-8.728547336,0.086803826,-7.248851226,-8.657589039
33:03.0,70,87.2,0.055308332,-0.019412991,0.998148104,-2.067476497,7.52555078,-11.87632952,-0.915915597,-1.854342378,-17.741501
33:04.0,71,88.18,-0.03791959,-0.043526219,0.997934923,1.96194389,2.092836512,-3.63247362,-1.583179002,2.253672254,-26.13167398
33:05.0,72,89.16,-0.033504324,-0.049640787,1.000175975,-6.892094122,-4.537659828,-76.71019822,-3.923842291,0.317520976,-54.86110142
33:06.0,73,90.14,0.112136762,-0.099930124,0.983653351,2.9934345,1.163285053,8.092335718,-4.871029978,-5.162881993,-93.02168182
33:07.0,74,91.12,0.032460783,-0.07587058,0.999871776,8.021641138,-0.626305734,59.75716737,-2.786043791,-1.195077512,-35.6568001
33:08.0,75,92.1,0.027451616,0.017270372,0.99745568,4.437756085,0.190908301,9.006976066,1.846890604,-1.380518783,-13.08840737
33:09.0,76,93.08,0.021870342,0.046951104,0.997394036,-1.135694852,1.979803848,3.560322791,2.646381642,-0.695217388,-7.689636661
33:10.0,77,94.06,4.40E-05,0.001254335,0.99939587,-2.516260579,0.963314233,2.749082171,0.172107453,0.373472253,-4.388390611
33:11.0,78,95.04,-0.003032027,-0.038471001,0.999265284,-0.388279286,0.042362852,2.306927598,-1.627427147,0.526639901,-1.721860283
33:12.0,79,96.02,-0.001385476,-0.001030631,1.011100364,2.784959207,0.738517173,3.411560613,0.813476839,0.564169455,1.10919534
33:13.0,80,97,-0.003780092,0.005069303,1.012429163,2.069160751,5.961295564,0.175331492,0.835213592,1.418145098,3.226027862
33:14.0,81,97.98,-0.109034741,0.051376818,0.997291231,-3.358268098,-3.719744413,1.939850856,2.654113495,5.432816641,4.232394496
33:15.0,82,98.94,-0.00863832,-0.052860828,0.992306639,-4.919546424,-5.862751432,-5.460916253,-3.302603876,0.164001451,4.440564817
33:16.0,83,99.92,0.038487248,-0.093592487,0.989549461,6.383929914,0.266627186,63.64403017,-3.854969682,-0.809020524,40.22962936
33:17.0,84,100.9,-0.003916484,-0.010608894,0.99717334,5.375069291,-0.229414318,10.46413368,0.705323227,0.465064656,64.99140008
33:18.0,85,101.88,-0.035448926,0.032403458,0.997018371,-0.981126321,5.400186846,7.657739512,1.994534433,3.085870992,73.45228227
33:19.0,86,102.86,-0.111493367,-0.054955261,1.002894705,2.555748771,2.891501849,6.906854513,-1.898495237,6.934357625,80.75108105
33:20.0,87,103.84,-0.150167754,-0.00675019,1.000417025,0.651407904,3.894234362,9.469862072,0.36996504,9.265882602,87.70413689
33:21.0,88,104.82,-0.127772875,-0.012572964,0.993209151,-2.8184913,-4.942940037,6.394933864,-0.771629381,6.77894932,95.74162273
33:22.0,89,105.8,-0.008388874,0.003944204,0.998431097,-3.476193214,1.394924407,5.931573322,0.027612639,1.569234136,101.5537963
33:23.0,90,106.78,-0.02310065,-0.056683668,0.997867107,1.62833134,-1.586142606,3.626058325,-1.989517283,1.339429199,106.0971067
33:24.0,91,107.76,-0.00678266,-0.078413953,0.993524375,-4.518230084,-2.682747655,1.551119799,-4.849580205,0.210537517,106.7823581
33:25.0,92,108.7,0.001118436,-0.001726101,1.008086661,2.751891017,-0.841200167,-51.34537629,0.493532377,0.167086053,87.00207403
33:26.0,93,109.44,0.006501911,0.008061463,1.006426727,-0.622135378,-0.329460916,-4.060542573,0.564367836,-0.228945793,68.10520257
33:27.0,94,110.36,0.06020658,-0.04228958,0.983116461,0.108061268,0.107957574,-2.25229631,-1.993762243,-2.975717103,67.71961273
33:28.0,95,110.84,0.042129952,-0.02741983,1.001125746,1.028118588,1.852201341,-1.964933883,-0.966859942,-1.668486366,66.46107075
33:29.0,96,111.38,0.025986315,-0.041163645,0.99784416,-0.689074359,2.414879725,-0.419047232,-2.121426185,-0.846291781,66.23032798
33:30.0,97,112.04,-0.017875854,-0.032695898,1.000213549,3.132413096,0.848335275,-1.925315568,-0.87580152,1.249088809,65.30322629
33:31.0,98,112.72,-0.095423539,0.031764983,0.998840822,6.493916456,13.31689759,-0.997081208,3.341621811,8.182643019,64.24510709
33:32.0,99,113.4,-0.191008868,0.07132365,0.97493742,-3.565536998,-10.04021038,-1.419726144,3.431043486,8.449214883,63.89486088
33:33.0,100,113.92,0.001724192,0.002028411,0.999773963,-1.322673007,-6.793692623,-3.320916404,0.343450217,-0.542940717,62.63918593
33:34.0,101,114.56,0.023628749,0.007717759,1.003366095,1.180933941,3.282446708,-0.411036771,1.076685251,0.00070105,61.23510241
33:35.0,102,115.16,0.008172233,0.007578697,1.000109391,0.14944614,-0.397084317,-0.252833919,0.851488589,-0.187791741,61.44941198
33:36.0,103,115.78,0.010578539,0.003935371,1.000006208,0.612527969,0.360264077,-0.676280481,0.764061332,-0.245528997,60.99447862
33:37.0,104,116.36,0.011746595,0.004436391,0.999991718,0.285148187,0.201423562,0.082504124,0.759892997,-0.3301609,60.9905562
33:38.0,105,116.82,0.012097164,0.003947919,1.000007092,9.89E-05,-0.002876456,0.027184022,0.523221844,-0.50128843,61.06113029
33:39.0,106,117.52,0.011912768,0.002157308,0.999945871,0.002659356,-0.007488876,-0.239486935,0.331130978,-0.631425169,61.14554901
33:40.0,107,118.16,0.011627033,0.014183768,1.000271148,-0.103773694,0.162945004,1.738598932,0.431286553,-0.650635248,61.50313869
33:41.0,108,118.74,0.003790739,-0.044817096,0.99896718,-0.091700313,0.074879423,0.797093732,-0.387658945,-0.41406811,62.29392084
33:42.0,109,119.56,0.015908441,0.020271669,0.999706923,2.258472516,0.654206707,6.566127027,0.070105553,-0.358770353,66.27881339
33:43.0,110,120.2,-0.01393554,0.021193951,0.998294657,-1.235470319,-0.230288362,8.164071271,1.443267769,-0.017052646,70.35626516
33:44.0,111,120.74,0.002639652,0.054794164,1.001150772,-2.185345209,0.096238862,2.612321328,1.469029164,-0.234330017,74.57012949
33:45.0,112,121.36,0.028143168,-0.025850406,0.996687287,2.857415274,0.553895114,-10.94996008,-0.039115838,-0.899282422,70.44500321
33:46.0,113,122.34,0.013944492,0.002791272,0.999459783,0.372061708,-0.999555378,-8.659804307,0.465678876,-0.4598801,63.87996671
33:47.0,114,123.06,-0.018145821,-0.002455968,1.002911865,-1.432021162,-0.858798781,1.34988097,-0.037981603,0.035531361,59.74325852
33:48.0,115,123.56,0.008553539,0.033342051,1.000764725,0.731452371,-0.578057754,6.506818237,0.612003823,-0.391350725,62.82913985
33:49.0,116,124.22,0.022715943,0.010647526,0.999613335,-0.279700108,0.230513729,-5.491817412,1.271686555,-0.55345216,61.89310166
33:50.0,117,124.88,0.013215143,0.035070786,0.9982764,-0.937198391,0.097776014,-7.889209139,1.519451381,-0.581882804,58.59260017
33:51.0,118,125.86,0.002808479,-0.007210187,1.002459038,-0.477799191,-1.151539064,-7.019500615,1.035317929,-0.754368764,50.68633674
33:52.0,119,126.84,0.008906516,-0.024263748,0.998394535,0.811638212,-0.678034387,-2.82042694,-1.292576155,-0.895153808,46.63645899
33:53.0,120,127.8,0.013753665,-0.010233764,1.000653922,0.841957109,-0.037905301,-3.262214854,-0.518776744,-0.834137172,43.65174312
33:54.0,121,128.78,0.008647122,-0.007438861,0.999276976,-0.663496352,0.459839471,-5.202674578,-0.51570628,-0.585877164,40.97093651
33:55.0,122,129.76,-0.001864138,-0.022087518,0.99914023,0.780652282,0.30679481,18.99023744,-0.597317791,0.181549694,42.82929157
33:56.0,123,130.74,0.030738915,0.013647051,0.999160877,0.948015104,0.605033354,22.88788934,-0.547636204,-0.27321373,67.41167841
33:57.0,124,131.72,0.01147886,0.027276415,1.000042241,-1.038090206,0.010410117,16.58805898,0.587125935,-1.462099074,86.50026672
33:58.0,125,132.7,0.001757232,0.002670282,1.000965826,-0.534571338,0.017922466,4.853723277,0.29311071,-0.268946051,95.84964269
33:59.0,126,133.68,0.003433328,0.000792161,1.000826945,0.267945152,0.089819703,3.351039915,0.209653166,-0.274770225,100.1958809
34:00.0,127,134.66,0.042725621,0.016870736,0.99912462,0.793578738,0.315694637,1.270728435,0.46828872,-0.9905346,101.5600676
34:01.0,128,135.64,-0.008257158,0.003153257,1.000754527,-0.588201689,-0.286687116,-0.908961374,0.109326943,-0.344243151,102.2191048
34:02.0,129,136.62,0.002815139,0.000582322,0.999439241,-1.123640896,-0.359385266,-0.978458716,-0.093192941,-0.160588696,101.9689948
34:03.0,130,137.6,-0.016227835,-0.01886283,1.003570585,-0.345698247,0.057179718,15.1933672,-0.182218689,0.491470088,106.6192007
34:04.0,131,138.58,0.032524049,0.041364962,0.99885205,2.986499456,-0.59367853,18.69322264,1.75728772,0.139039111,126.3656903
34:05.0,132,139.56,0.000784236,-0.020660702,1.002876555,0.295038898,1.041176818,19.89391813,0.207724451,-0.292374925,141.1172547
34:06.0,133,140.54,0.016996388,0.077263491,0.992912527,-0.974960519,1.849549622,7.909546485,4.036702757,-1.232534953,154.3483004
34:07.0,134,141.52,0.002284254,0.003925375,1.002959224,-0.27684271,-0.687581431,7.787251224,0.892068338,-0.742764004,163.7788477
34:08.0,135,142.5,0.011963503,0.005730314,1.000973651,-0.265067564,-0.091424508,2.222144383,0.465468651,-0.598898985,167.9555749
34:09.0,136,143.48,0.011102169,0.005006921,1.000033938,-0.027682122,-0.052052262,-0.324245996,0.359085221,-0.637741067,168.6223655
34:10.0,137,144.46,0.006500896,0.003136049,1.000189555,0.140778572,0.15754021,-0.670185797,0.407124945,-0.517562784,168.324557
34:11.0,138,145.44,0.01090584,0.023363838,1.000857296,-0.491454368,0.278089992,6.087864995,1.605660609,-1.174824989,173.9328908
34:12.0,139,146.42,0.004785801,-0.014782244,0.99900215,-0.059324679,-0.837523113,6.377577623,-0.574586469,-0.408352435,189.9788772
34:13.0,140,147.4,0.007077845,0.012271407,1.001749804,0.863074762,0.211285971,4.108086099,0.416239471,-0.351999368,-185.5133077
34:14.0,141,148.38,0.003040603,-0.002182891,0.998653466,0.023902493,-1.227062027,-67.45368343,-0.033855784,-0.621040848,143.6711142
34:15.0,142,149.34,-0.007489574,0.009255488,0.998409814,-0.180695688,-0.821155032,-21.48426134,0.334942962,-0.184178219,107.9913478
34:16.0,143,150.32,0.007560943,0.013140162,1.000393999,-1.32853027,-0.156618812,-18.05877143,0.033339196,-0.502732897,83.9445949
34:17.0,144,151.3,0.003589596,-0.001849562,0.999849042,0.147552747,-0.024417881,-4.789869674,0.064679594,-0.429571389,75.27654807
34:18.0,145,152.28,0.014422836,0.040427973,0.999540099,0.049992191,-0.086447992,-11.90369223,0.846091041,-0.490546473,67.97906113
34:19.0,146,153.26,0.006454829,0.001601754,1.001552145,-0.337792803,-0.007168406,-6.235548823,1.186927012,-0.387861596,58.74549555
34:20.0,147,154.24,-0.001971248,-0.007758277,0.999635659,-0.262670516,-0.193978988,-3.065753293,-0.654119014,-0.073499663,54.90994048
34:21.0,148,155.22,-0.006297669,-0.061857734,0.99731636,2.696212398,-0.020169733,-12.44404086,-1.733134578,-0.133714051,44.86135105
34:22.0,149,156.2,0.001323588,0.051536479,0.997312414,-0.453901802,0.17529954,-3.278408424,2.000914068,-0.241206754,38.30882338
34:23.0,150,157.18,-0.000665427,0.01827846,1.001649245,-0.114876727,-0.582447743,-1.10432582,0.969094213,-0.151832139,36.77123972
34:24.0,151,158.16,-0.000138933,0.015044655,1.000209139,0.022980559,-0.095542858,-0.355388868,0.901153833,-0.047436106,35.89880775
34:25.0,152,159.14,0.002953853,0.016008326,0.999925962,-0.061238352,0.041030099,0.091288771,0.836977526,-0.023938511,36.14605969
34:26.0,153,160.12,-0.023106562,-0.017763222,1.001126541,0.25257271,-0.197854869,11.91690196,-0.031270638,0.624242489,36.54584039
34:27.0,154,161.1,-5.78E-05,0.011859013,1.004908702,-2.813100358,0.890194116,15.52023563,-0.128430954,0.527243869,53.59718142
34:28.0,155,162.08,0.025859225,-0.053876073,0.993441995,1.001823106,-0.638597275,10.16963146,-3.24012231,-0.458453125,69.01305645
34:29.0,156,163.06,-0.017440005,-0.018923819,1.002732137,4.360831819,-0.068907412,3.330956749,0.810606767,-0.23043319,70.61515032
34:30.0,157,164.04,0.010175164,0.002599731,0.998735044,0.901749593,-0.260408572,-16.93967407,0.385091512,-0.375850235,63.25059154
34:31.0,158,165.02,-0.00313798,0.005758315,1.000412211,-0.165671971,-0.546115265,-24.63471966,0.271470019,-0.217194418,41.4984882
34:32.0,159,166,-0.007974805,0.013037451,1.000002445,0.337646831,-0.193585107,-17.03414198,0.276577578,-0.081068339,19.47950993
34:33.0,160,166.98,-0.005773659,0.004068704,1.000270252,0.381201045,0.039331862,-9.559177605,0.401519997,-0.065630269,8.545545585
34:34.0,161,167.94,-0.002307815,0.00738278,1.000387715,0.15400102,-0.247476981,-3.472516816,0.887258532,0.02344422,6.105014475
34:35.0,162,168.92,-0.004508026,0.002793802,0.99962143,-0.18423031,-0.247280638,-2.734714479,0.26425948,0.061055971,1.296901037
34:36.0,163,169.9,-0.002529347,0.006027511,1.000354006,0.114344958,-0.195426185,-1.460569918,0.410597675,0.042614167,-0.45721296
34:37.0,164,170.88,-0.000171833,0.006582218,1.000233677,-0.359323771,-0.183581149,-0.731169341,0.406645879,-0.070774545,-1.299875212
34:38.0,165,171.86,0.000591937,0.002804535,0.999932409,-0.01250636,-0.136384554,0.322513956,0.248871768,-0.158492761,-1.600060128
34:39.0,166,172.84,-6.84E-05,0.008459491,1.000234111,0.359871654,0.157581659,-2.976176611,0.638569665,0.162827204,-4.09796163
34:40.0,167,173.78,-0.003694044,0.009983401,0.999996915,0.106265884,-0.057129362,-0.050540819,0.653145436,0.101775212,-4.945968172
34:41.0,168,174.66,-0.003994875,0.011851063,0.999986825,0.1041378,-0.062115535,0.178931388,0.738400562,0.154646858,-4.814699124
34:42.0,169,175.38,-0.01386772,0.003962684,1.000104016,-0.512514995,-0.13865776,-3.343364657,0.440344952,0.32146218,-5.745325898
34:43.0,170,176.36,-0.005872251,0.006818006,1.000589726,-0.380021756,0.024045812,-2.868850098,0.327833059,0.427473111,-8.765076205
34:44.0,171,177.34,-0.009584657,-0.002852565,1.000656164,-0.297152045,0.1459951,-0.357877485,0.080814038,0.4186765,-11.04555074
34:45.0,172,178.34,0.02248818,0.029480981,1.000259372,-0.253094088,0.348943619,1.03012683,1.170411122,-0.584463092,-9.850656757
34:46.0,173,179.32,-0.009166276,0.00583161,0.999920574,-0.294219499,-0.693422045,-1.941693783,0.521488264,0.324146667,-11.24297728
34:47.0,174,180.3,-0.003809691,0.003383234,1.000398281,0.141692289,0.003219561,-1.451784711,0.352996533,0.241552277,-12.28147336
34:48.0,175,181.3,-0.003733608,0.005210671,1.000124119,0.022941238,0.016146252,-0.004417259,0.358032435,0.246189143,-13.03602538
34:49.0,176,182.28,-0.0029682,0.006791876,1.000008274,0.003337167,-0.000431364,-0.019148085,0.362531984,0.218042477,-12.91130561
34:50.0,177,183.28,-0.002998543,0.006794357,1.000000639,9.09E-05,-5.62E-05,0.028935337,0.384711011,0.188407185,-12.78065049
34:51.0,178,184.26,-0.003002299,0.006865181,0.999999886,0.00016213,0.000129339,-0.010351398,0.392174458,0.176942095,-12.64808451
34:52.0,179,185.24,-0.003015138,0.006922568,0.999997801,0.001860761,0.001428317,0.037134866,0.396852938,0.173133458,-12.54418043
34:53.0,180,186.24,-0.003053489,0.006961694,0.999975443,0.016966635,0.011811425,0.218128535,0.397453329,0.171749109,-12.44954332
34:54.0,181,187.22,0.000951992,0.004900876,1.000011908,-0.109224216,-0.196161833,-5.9512752,0.305845112,0.054488322,-14.19690632
34:55.0,182,188.22,-0.003832601,0.005209323,0.999960651,-0.054980354,-0.009954027,-0.899942345,0.350648783,0.128819255,-16.76246141
34:56.0,183,189.2,-0.001911891,0.006044668,1.000004096,-0.003377578,0.001390548,0.022643937,0.339756083,0.14121409,-16.81898143
34:57.0,184,190.18,-0.001994377,0.006005256,1.000000732,-0.000156444,0.00022418,0.018849338,0.347556959,0.133467182,-16.69740519
34:58.0,185,191.16,-0.001999987,0.006000373,1.000000079,6.05E-06,2.30E-05,0.011522955,0.351447801,0.131837692,-16.57012092
34:59.0,186,192.14,-0.002000048,0.006000012,1.000000006,2.37E-06,1.60E-06,0.000835083,0.352988847,0.130939188,-16.44154472
35:00.0,187,193.06,-0.00200001,0.005999997,1,3.90E-07,-2.52E-08,0.006687903,0.352845865,0.131748031,-16.32947815
35:01.0,188,193.6,-0.001999998,0.006000001,1,-1.51E-07,-1.70E-08,0.021865418,0.353008504,0.130996882,-16.25346033
35:02.0,189,194.58,-0.002000008,0.005999992,1,-1.20E-06,-5.74E-07,0.015870565,0.353239933,0.130984343,-16.12360159
35:03.0,190,195.56,-0.002000059,0.005999875,1.000000002,-1.56E-05,-7.22E-06,0.005775994,0.353892818,0.13124296,-15.99103427
35:04.0,191,196.54,-0.00200013,0.005998658,1.000000038,-0.00014001,-6.22E-05,0.005649785,0.354143127,0.1309197,-15.85777038
35:05.0,192,197.52,-0.001995777,0.005990405,1.000000402,-0.000724852,-0.00028916,-0.023863218,0.354036703,0.131801823,-15.72630387
35:06.0,193,198.5,-0.001911877,0.005981974,1.000002742,0.002887038,0.001877265,0.009972416,0.358329244,0.13149142,-15.51517809
35:07.0,194,199.48,-0.000924686,0.006373856,1.000010288,0.110515712,0.053209275,2.520177562,0.397626186,0.136993465,-14.57102761
35:08.0,195,200.46,0.003176987,0.019738542,0.999645914,0.698326545,-0.54165185,-29.13008349,0.120330302,-0.155517845,-43.84679197
35:09.0,196,201.44,-0.002704679,-0.012754982,0.999712323,-0.455633489,0.061339666,-6.048035981,0.05289481,-0.397788727,-48.84164467
35:10.0,197,202.42,-0.021141124,-0.048398847,1.001777988,0.395831797,-0.086913724,1.405503457,-0.422681409,-0.137161134,-53.46045815
35:11.0,198,203.4,0.011286137,0.019037343,0.998338544,-1.128182115,0.682100837,5.761414368,0.331415885,-0.21464802,-46.38545868
35:12.0,199,204.16,0.00680978,0.000207444,1.000179524,0.088205171,-0.044231508,0.073795031,-0.039572496,-0.356561238,-44.49586234
35:13.0,200,204.74,0.005472057,-8.71E-07,0.999996963,-0.044546283,0.003077956,0.034548665,-0.02768606,-0.337417417,-44.46237497
35:14.0,201,205.38,0.005974876,1.25E-06,0.999987612,0.008699714,0.001496812,0.00329085,-0.03474832,-0.34541082,-44.3644694
35:15.0,202,205.94,0.005854668,4.64E-06,1.000007609,0.006754569,0.005703749,0.003786121,-0.038439154,-0.344777837,-44.2924369
35:16.0,203,206.78,0.005575829,-0.002523088,0.999996143,0.039484243,0.01699041,0.047689239,-0.063525065,-0.346518581,-44.16651433
35:17.0,204,207.76,0.007156767,0.025738854,0.999743148,0.085572968,-0.487311452,-3.60914026,0.725522948,-0.471138753,-45.24574902
35:18.0,205,208.74,0.009405575,-0.021193374,0.999325389,-0.780821054,0.072310811,-0.115820009,-0.386494779,-0.716008759,-48.76939671
35:19.0,206,209.72,0.022476244,0.035451529,0.999156728,-0.871846398,-0.809484368,-42.30288965,1.507278467,-0.752642786,-83.72022087
35:20.0,207,210.7,-0.015542805,-0.016122077,1.00059298,-0.45335224,0.429338856,36.63977353,0.455709013,-0.26971189,-56.83840555
35:21.0,208,211.68,-0.003955685,-0.027978409,0.999927473,0.675385909,0.083610996,9.184889021,-0.249580268,0.114243052,-43.04342684
35:22.0,209,212.66,-0.004115748,-0.010615465,1.000430345,-0.485506749,-0.220807955,-8.314201659,-0.237776006,-0.000897273,-35.44614601
35:23.0,210,213.64,-0.011617299,0.002352719,1.00035944,-0.817056799,-0.614415521,-41.25261919,-0.812595426,-0.289185728,-65.09462096
35:24.0,211,214.62,0.008933951,0.031145743,0.999385485,0.149201357,-0.323262584,-14.49547704,0.761396998,-0.360758113,-86.95626806
35:25.0,212,215.6,0.003904462,0.019959725,1.001175229,-0.277598148,-0.473190957,-29.74421259,0.522331179,-0.39128662,-114.6244881
35:26.0,213,216.58,8.24E-06,0.007924052,1.000890581,-0.111038739,-0.041176587,13.37858666,0.645311776,-0.218004103,-133.4054348
35:27.0,214,217.56,0.011617085,0.028918866,0.999928991,1.327279388,0.54425821,16.06211989,0.795124991,-0.437901001,-112.5668755
35:28.0,215,218.54,0.011495371,0.018725029,0.999443574,-0.954400155,0.180933017,2.719727744,0.968559576,-0.76976494,-103.2017152
35:29.0,216,219.52,0.012569823,0.024778422,0.999938922,-0.38404324,-0.009830607,2.609557706,0.753232894,-0.693097012,-103.8316848
35:30.0,217,220.48,0.017894496,0.030220633,0.99801595,1.503920967,-0.178563978,-0.283223936,0.682644662,-0.723783639,-102.0790915
35:31.0,218,221.46,0.008916073,0.018742052,1.000237172,0.588593215,0.1868572,0.992249867,1.444838755,-0.508054589,-102.9398631
35:32.0,219,222.44,-0.000216331,-0.024102957,1.000451175,-1.512610011,0.150726551,3.35028617,-0.377078963,-0.298933092,-100.5704431
35:33.0,220,223.42,0.010213674,-0.014727572,1.000091532,1.057766823,0.292934016,0.937408117,-0.76402516,-0.574571949,-97.63492245
35:34.0,221,224.4,0.009008432,0.005950556,1.000137266,-0.268049944,-0.266444541,1.002711329,-0.123910131,-0.482332252,-97.11142319
35:35.0,222,225.38,0.008909935,0.002207835,1.000187315,0.01745664,0.015334887,-0.123510267,0.046203268,-0.516367571,-96.86186335
35:36.0,223,226.36,0.008421631,0.002694935,1.000007517,-0.003605531,-0.000972311,0.049462654,0.111537733,-0.502422825,-96.85581316
35:37.0,224,227.34,0.008979371,0.002967498,1.000000141,-0.000410624,-4.64E-05,0.010688986,0.16991449,-0.527752437,-96.72182803
35:38.0,225,228.32,0.00899927,0.002997274,0.999999953,-3.59E-05,1.49E-06,0.014666328,0.194847888,-0.537074445,-96.59241343
35:39.0,226,229.3,0.009000077,0.002999868,0.999999991,-1.95E-06,6.54E-07,0.012659434,0.204061923,-0.540675671,-96.46012293
35:40.0,227,230.28,0.009000019,0.003000004,0.999999999,1.68E-08,8.99E-08,0.007202627,0.207081103,-0.541488998,-96.33656013
35:41.0,228,231.26,0.009000002,0.003000002,1,2.03E-08,8.30E-09,0.010476967,0.208598639,-0.542074073,-96.20939218
35:42.0,229,232.24,0.009,0.003,1,3.06E-09,4.98E-10,0.014242696,0.208899176,-0.542104226,-96.0770161
35:43.0,230,233.22,0.009,0.003,1,3.00E-10,3.63E-12,-0.000373112,0.209924176,-0.542247482,-95.95292242
35:44.0,231,234.2,0.009,0.003,1,1.98E-11,-3.94E-12,0.010170392,0.209990302,-0.543052913,-95.83217479
35:45.0,232,235.18,0.009,0.003,1,4.05E-13,-6.56E-13,0.018062524,0.209998695,-0.542772767,-95.69377369
35:46.0,233,236.1,0.009,0.003,1,-2.20E-13,-6.96E-14,0.006140666,0.21000035,-0.543026556,-95.5686822
35:47.0,234,237.08,0.009,0.003,1,-2.81E-14,-2.39E-15,0.015802781,0.210005446,-0.542988226,-95.44459221
35:48.0,235,238.06,0.009,0.003,1,6.26E-15,7.94E-15,0.006325343,0.210044438,-0.54300345,-95.31581357
35:49.0,236,239.04,0.009,0.003,1,6.84E-14,1.59E-14,0.008210745,0.209359836,-0.543067242,-95.18660885
35:50.0,237,240.02,0.009,0.003,1,2.22E-13,-5.91E-13,0.007059006,0.209977011,-0.541933147,-95.05705682
35:51.0,238,241,0.009,0.003,1,-3.69E-12,-1.21E-11,0.0141854,0.209694445,-0.54200102,-94.92435837
35:52.0,239,241.98,0.009,0.003,1,-8.89E-11,-1.45E-10,0.011230583,0.209215107,-0.542033706,-94.78946783
35:53.0,240,242.96,0.009,0.003,1,-1.15E-09,-1.21E-09,0.008621098,0.210010684,-0.542904567,-94.66292112
35:54.0,241,243.94,0.009,0.003,1,-1.02E-08,-5.03E-09,-0.001044961,0.210073183,-0.542685391,-94.54017717
35:55.0,242,244.92,0.009,0.002999999,1,-5.13E-08,4.55E-08,0.019759315,0.209741837,-0.543987523,-94.41407599
35:56.0,243,245.9,0.008999992,0.003000008,1.000000002,2.27E-07,1.35E-06,0.017610437,0.209870857,-0.543505049,-94.27227042
35:57.0,244,246.88,0.008999859,0.003000256,1.000000015,9.64E-06,1.85E-05,0.00863535,0.209009527,-0.542991117,-94.14317216
35:58.0,245,247.86,0.008998429,0.003003553,1.000000097,0.000143172,0.000174799,0.00405983,0.208977534,-0.541952303,-94.01770181
35:59.0,246,248.84,0.008988128,0.003033779,1.000000026,0.001436326,0.001005592,0.046826623,0.209238761,-0.542044606,-93.89477986
36:00.0,247,249.82,0.00896774,0.003194171,0.999989635,0.009143732,-0.001842684,0.226471175,0.208361831,-0.544775076,-93.83195093
36:01.0,248,250.8,0.009394634,0.003511687,0.999818034,0.037995369,-0.127310973,0.398213768,0.170740729,-0.582698169,-94.43555035
36:02.0,249,251.78,0.003806508,-0.003558442,1.00081297,-0.708248593,0.021567302,35.91352298,0.49458673,-0.07763615,-61.39814342
36:03.0,250,252.76,0.009349819,-0.000590398,0.999870579,1.90178454,1.84062841,60.12275651,0.427582927,-0.126572647,-36.86648146
36:04.0,251,253.74,0.010540463,-0.030062684,0.997528724,-0.610158645,-0.224484208,0.052654838,-0.910954666,0.13230937,11.57404961
36:05.0,252,254.7,-0.004419345,0.027212609,0.998690285,-2.188553228,-0.35932141,-7.022562119,0.642401648,-0.02050039,-1.830502661
36:06.0,253,255.68,0.001871932,0.006277052,1.002246871,1.067892526,0.309136928,-3.178722482,0.557263444,-0.098974038,-7.489463275
36:07.0,254,256.66,-8.06E-05,0.006865455,1.000485511,-0.493146433,-0.29004775,-1.397004416,0.318576566,-0.120009172,-9.930901668
36:08.0,255,257.64,0.002092513,0.003907664,1.000005648,0.214855497,0.117265677,0.034578536,0.272859471,-0.125342298,-10.09696988
36:09.0,256,258.62,0.005222792,0.000646111,0.999912976,-0.033196815,-0.011580902,0.624355188,-7.47E-05,-0.324001248,-10.03916584
36:10.0,257,259.6,-0.000691137,0.013963962,1.001090916,-0.535566604,-0.037941356,35.64798524,0.541976014,-0.002384999,9.011769024
36:11.0,258,260.58,0.003785964,-0.016758762,1.000251592,0.175834242,0.176996603,7.650835759,0.545189252,0.122474775,39.74423888
36:12.0,259,261.56,-0.00245845,0.018084452,1.00059829,-0.090292504,-0.055666226,-7.239744738,0.577667449,-0.106918669,28.44858907
36:13.0,260,262.52,0.000122358,0.01409332,0.999973571,-0.282496134,-0.21170939,-7.129966738,0.628922276,-0.140068468,21.39580895
36:14.0,261,263.22,0.001523079,0.012188033,0.99998458,-0.013494751,-0.06442947,-4.760923456,0.649030965,-0.203383421,17.30111265
36:15.0,262,263.88,0.001126405,0.012531785,1.000162045,-0.075732992,-0.011032557,-1.87972832,0.66337519,-0.149921335,15.29849421
36:16.0,263,264.44,0.001446248,0.011330536,1.00027652,-0.036732983,-0.008359212,-0.444798654,0.653567084,-0.137871366,14.73909972
36:17.0,264,265.02,0.00104957,0.012840494,0.999966719,0.00837709,9.28E-05,0.104546947,0.696514222,-0.119703626,14.79482478
36:18.0,265,265.76,0.001012432,0.012959552,1.000002709,0.000390305,0.000137668,0.012364699,0.728740621,-0.108053421,14.9133603
36:19.0,266,266.4,0.00099654,0.013011034,1.000000116,-0.000256187,-3.56E-05,-0.003063815,0.742037112,-0.103872658,14.9934161
36:20.0,267,267.34,0.000999775,0.013000717,0.99999991,9.17E-07,-2.27E-06,0.017294519,0.746057005,-0.102353331,15.11494635
36:21.0,268,268.32,0.000999996,0.012999975,0.999999988,7.58E-06,9.46E-07,0.011017441,0.748537431,-0.101987868,15.24644077
36:22.0,269,269.3,0.000999996,0.013002249,0.999999999,1.44E-05,1.07E-06,0.004756014,0.748805084,-0.101513679,15.37015316
36:23.0,270,270.3,0.001000076,0.013041967,1,-0.000292876,-7.60E-05,0.010427367,0.749125934,-0.10207156,15.50005543
36:24.0,271,271.28,0.001002322,0.013389702,1.000000001,-0.007353981,-0.001591723,0.092741543,0.746611374,-0.101750641,15.65462893
36:25.0,272,272.28,0.001031989,0.013563737,1.000000013,-0.017241852,0.001786247,0.081686486,0.762156589,-0.097063081,15.82968686
36:26.0,273,273.26,0.000874439,0.013577603,1.000000129,-0.000752043,0.00061786,-0.000790661,0.755992318,-0.101627167,16.01497411
36:27.0,274,274.26,0.001005533,0.013800791,1.000000956,0.009181621,0.002800115,0.000209433,0.776480166,-0.097409985,16.14175703
36:28.0,275,275.24,0.001192671,0.013217198,1.00000132,-0.029671565,0.009364568,0.065050083,0.758445276,-0.096244872,16.27478674
36:29.0,276,276.22,0.001300996,0.014026635,0.999757145,-0.095619038,-0.020548252,0.082947945,0.72428656,-0.104858477,16.54240383
36:30.0,277,277.22,0.000741126,0.013588539,1.000002401,-0.034766889,-0.001915981,0.005489698,0.721990521,-0.10455957,16.70986737
36:31.0,278,278.2,0.000506025,0.013179714,1.000023525,0.013455051,0.015352847,-0.170036344,0.757230504,-0.089737147,16.7927948
36:32.0,279,279.2,0.000872728,0.013289526,1.000594848,0.157845504,0.274230718,-0.041531946,0.776189674,-0.047915537,16.85729709
36:33.0,280,280.18,0.002769792,0.009713886,1.013501506,1.519772714,6.091253974,-0.633578958,0.792322628,0.786058097,16.99043119
36:34.0,281,281.18,-0.12636384,0.047933541,0.997923523,-7.054540174,1.0873838,-1.563461071,1.465212833,6.896428358,14.82256876
36:35.0,282,282.16,-0.057275302,-0.080290856,0.991199935,-1.86247188,0.248845946,0.841901862,-4.498359011,3.251374575,15.1120885
36:36.0,283,283.14,-0.097139264,-0.067364934,0.996506443,3.21693603,-7.722140279,3.395146932,-3.018633083,4.097271845,16.63946617
36:37.0,284,284.14,0.012937856,-0.011699543,1.010342135,-10.56450036,7.057269274,-0.609575687,-2.153572443,0.797349692,16.92157295
36:38.0,285,285.12,-0.097958133,-0.002752002,0.995200352,3.390700446,-5.700639973,10.77598381,-0.44657231,3.895176586,23.41669891
36:39.0,286,286.12,-0.008830649,-0.073939851,1.003270376,-3.000863655,-3.468314621,15.37357755,-3.919220284,0.615164431,37.41126022
36:40.0,287,287.1,0.027956678,-0.086236102,0.990228309,-4.312287168,6.175577354,22.36262028,-5.747540792,0.587200233,55.10880802
36:41.0,288,288.1,-0.038714974,-0.131424258,0.989754984,-0.508093669,-2.175342507,12.40535084,-6.859299353,2.134455945,76.28680247
36:42.0,289,289.08,-0.094514575,-0.150796881,0.976547786,-8.458041343,11.97207908,17.93313275,-10.22634941,8.264857972,87.8692542
36:43.0,290,290.08,-0.13981525,-0.110325312,0.97441195,12.73860119,-1.229514123,-8.29797107,-4.391774022,8.581147211,100.2857872
36:44.0,291,291.06,-0.104225403,-0.075120985,1.030927502,-0.816761804,2.349648607,3.819102384,-5.120526044,5.70396037,99.20439648
36:45.0,292,292.04,-0.162295152,-0.179759324,0.980259668,21.96297189,6.696635051,15.34442187,-5.832497145,7.363652843,104.0958525
36:46.0,293,293.04,-0.0063942,0.019182732,1.009830779,-5.520954473,-6.905189581,-2.299488125,-1.328415775,2.227323193,112.1862552
36:47.0,294,294.02,0.034131575,-0.027479553,1.021513117,0.628318848,1.931025098,-2.060628343,-0.778399759,-0.142346303,102.0287001
36:48.0,295,295.02,0.011425877,0.018938845,0.99669196,6.678233543,-3.3554178,-0.655325245,2.293811032,-1.025343404,102.8689243
36:49.0,296,296,0.006504591,0.055606954,0.997838023,-3.065936522,2.674127466,-0.2115914,1.901070335,0.032225403,103.546445
36:50.0,297,296.98,0.019762581,0.048102997,0.995825445,-0.693758118,0.57182995,-2.187528597,2.452156131,-1.135295618,102.6788432
36:51.0,298,297.98,-0.00654997,0.022517534,1.000546447,0.34352209,-0.490932915,-0.030683228,1.489018069,0.387701573,102.2764001
36:52.0,299,298.96,-0.007047957,0.025395048,1.000744283,-0.342404297,-0.07178963,-0.085894191,1.437274458,0.394172447,102.3768163
36:53.0,300,299.94,-0.004577629,0.03456652,1.010418397,-7.642232669,0.174370439,-0.225260933,0.540866232,0.377540191,102.6113418
36:54.0,301,300.94,-0.011198351,-0.308419711,0.940233859,-12.08851449,0.915168555,-1.44980976,-18.09522581,1.040112256,99.88879127
36:55.0,302,301.92,-0.017710895,-0.460124426,0.888619752,-4.849181082,0.093579082,0.15994006,-26.70540364,1.119005878,99.75223614
36:56.0,303,302.92,-0.017601545,-0.548191413,0.839464674,-2.445671394,0.136873454,-0.08948125,-32.39901914,1.167372515,99.9881322
36:57.0,304,303.9,-0.018627733,-0.57820666,0.821490977,-2.759298839,0.083277311,0.015794938,-35.07117471,1.158442104,100.1222763
36:58.0,305,304.88,-0.020137101,-0.618309666,0.792483749,-3.813898542,-0.011883978,0.230437243,-38.19847004,1.20128883,100.3225632
36:59.0,306,305.86,-0.020440076,-0.648243056,0.770550494,-7.69081748,0.005602961,0.385251642,-41.3766867,1.255590888,100.6151113
37:00.0,307,306.84,-0.023073826,-0.752799692,0.668230482,-5.758829554,0.081454577,0.181151083,-48.53253961,1.445113594,100.8854017
37:01.0,308,307.82,-0.023414216,-0.719668139,0.707129454,-2.982709019,0.152627114,-0.025795704,-46.63349141,1.386244302,101.0248954
37:02.0,309,308.8,-0.024069668,-0.737756665,0.685711933,4.18982145,-0.108306345,-0.049882805,-46.25794577,1.343853973,101.1291187
37:03.0,310,309.78,-0.023600696,-0.740475338,0.682488824,-9.431909559,0.276051438,0.132031133,-49.02839885,1.437949125,101.2670079
37:04.0,311,310.76,-0.024661917,-0.775832264,0.643952887,2.325003668,-0.045503013,-0.06987665,-49.76064389,1.446972653,101.3898923
37:05.0,312,311.74,-0.024080004,-0.745982773,0.679009149,-5.857970015,0.144121351,0.131562418,-49.34383789,1.434201807,101.5034256
37:06.0,313,312.72,-0.02514232,-0.764042841,0.651986293,21.09040502,-0.756710747,-0.054024651,-45.34700088,1.300747737,101.572056
37:07.0,314,313.7,-0.016474791,-0.36793229,0.925644368,28.73335286,0.316035745,-4.076491061,-19.56407457,0.439058191,99.80586019
37:08.0,315,314.68,-0.009575503,0.009215356,1.012207954,3.157679267,0.219357029,1.156557722,-2.022383128,0.392037925,99.94189296
37:09.0,316,315.66,-0.011012125,0.023405582,1.000212288,0.026587034,-0.00898481,-0.314643041,0.243854108,0.674780512,101.2588805
37:10.0,317,316.64,-0.010461677,0.024021281,0.999992472,0.006274889,-0.001975161,-0.016718156,0.984454533,0.63968993,101.3271744
37:11.0,318,317.62,-0.010421049,0.024097592,0.999997347,0.001957381,-0.000787876,0.008965572,1.250621332,0.615046505,101.4414868
37:12.0,319,318.6,-0.010421509,0.024147107,0.999999646,-0.000677364,-0.000922,0.010219807,1.347079096,0.612291536,101.5780294
37:13.0,320,319.58,-0.010340211,0.024375442,0.999999968,-0.000117728,9.43E-06,0.010657056,1.386760472,0.600753273,101.7019913
37:14.0,321,320.56,-0.009925254,0.024285949,0.999999998,-0.000251222,0.000457579,0.000187483,1.398651903,0.601159923,101.8207027
37:15.0,322,321.54,-0.010646768,0.024001038,1,0.012302091,-0.001746598,-0.027477519,1.410119008,0.608200888,101.9580379
37:16.0,323,322.52,-0.010681735,0.024395753,1,0.005507668,-0.001064282,-0.012123421,1.427976243,0.598900378,102.0684591
37:17.0,324,323.5,-0.009737681,0.024932249,1,0.008527523,-0.0016506,0.01980401,1.445451921,0.582296787,102.1600494
37:18.0,325,324.48,-0.010131224,0.024552875,1,0.000175184,0.003258674,0.056162591,1.439221032,0.594193134,102.3076831
37:19.0,326,325.46,-0.010475674,0.0245653,1,-0.006092211,0.002498746,0.006288715,1.414761817,0.60107512,102.446125
37:20.0,327,326.44,-0.010356968,0.024097902,1,0.002073558,-0.002643398,-0.002166639,1.40921178,0.608993149,102.5780592
37:21.0,328,327.4,-0.010332672,0.024127667,1,-0.025667407,0.010218425,-0.00031785,1.401451213,0.600350598,102.7083481
37:22.0,329,328.38,-0.010290887,0.024074259,1,0.000973005,0.000399391,-0.005816014,1.398735599,0.603097342,102.8248853
37:23.0,330,329.36,-0.010249977,0.024111091,1,-0.004957966,-4.42E-05,0.023798766,1.397503019,0.604618811,102.9465896
37:24.0,331,330.34,-0.01045576,0.024436026,1,-0.001712612,-0.000323375,-0.002207709,1.401572388,0.604856083,103.0780225
37:25.0,332,331.32,-0.011016217,0.024077886,1,0.023614692,-0.00700033,-0.041623378,1.42247839,0.591381288,103.1916682
37:26.0,333,332.3,-0.010150206,0.024307451,1,0.005478139,-0.003527537,0.012928848,1.431947921,0.585418823,103.3020622
37:27.0,334,333.28,-0.010664988,0.024459128,1,-0.000411676,0.000119962,-0.014324034,1.425048459,0.586185477,103.4116514
37:28.0,335,334.26,-0.010000871,0.024257248,1,-4.06E-05,1.35E-05,0.005192904,1.422152796,0.586942913,103.524181
37:29.0,336,335.24,-0.010374343,0.024268836,1,-2.70E-06,1.11E-06,-0.012633707,1.416184978,0.597001218,103.6456586
37:30.0,337,336.22,-0.010435058,0.024151857,1,-6.06E-08,5.37E-08,0.00500211,1.415181621,0.599702101,103.7692055
37:31.0,338,337.2,-0.010449943,0.024517881,1,1.49E-08,-1.67E-09,0.01274129,1.413195514,0.599601721,103.8903389
37:32.0,339,338.18,-0.010339145,0.024291716,1,2.82E-09,-1.34E-09,0.017427099,1.413104047,0.600096914,104.0199989
37:33.0,340,339.16,-0.01055786,0.024226648,1,-2.64E-09,-2.00E-09,0.003226696,1.412408232,0.600190446,104.1478808
37:34.0,341,340.08,-0.010539952,0.024333641,1,-3.69E-08,5.24E-08,0.018726808,1.412967167,0.601347552,104.278086
37:35.0,342,341.06,-0.010665329,0.024071468,1,-2.85E-07,8.07E-07,0.005121051,1.413726819,0.599106783,104.4114428
37:36.0,343,342.02,-0.010357798,0.024133039,1,-4.07E-07,7.55E-06,0.015660174,1.414080212,0.599704757,104.5403827
37:37.0,344,343,-0.010374993,0.024473038,1,1.94E-05,4.49E-05,0.01035367,1.414699042,0.59951323,104.671828
37:38.0,345,343.64,-0.010693064,0.024232056,1,1.55E-05,-0.000363292,-0.006034936,1.412949746,0.602482681,104.748775
37:39.0,346,344.34,-0.010275981,0.024097561,1,-0.000868318,0.001899334,0.005671163,1.412958557,0.602758646,104.8308432
37:40.0,347,345.22,-0.010404251,0.024195372,1,0.014702321,-0.003947164,-0.009285901,1.420290598,0.594645102,104.9462317
37:41.0,348,346.2,-0.010620178,0.024292313,1,0.021225345,-0.02111851,0.02530473,1.434535772,0.587573092,105.0857371
37:42.0,349,347.18,-0.010180374,0.024690563,1.000000001,0.012654258,-0.00532645,0.017235583,1.438826174,0.591649404,105.2090267
37:43.0,350,348.16,-0.010070229,0.024231034,1.000000031,0.008846845,0.003054468,-0.021219646,1.440397939,0.591447217,105.3255945
37:44.0,351,349.14,-0.010388335,0.024488072,1.000000468,0.005528323,-0.000193445,-0.005194187,1.444422739,0.590218803,105.4438391
37:45.0,352,350.12,-0.010241776,0.024195629,1.000004718,0.002869013,0.000401693,0.030712778,1.442044197,0.587733057,105.5744266
37:46.0,353,351.1,-0.010634776,0.02373224,1.000037189,0.031460035,-0.000916801,0.001544016,1.445757876,0.595117495,105.7099701
37:47.0,354,351.88,-0.010151762,0.025102306,1.000008442,0.007279302,-0.013154511,0.045948481,1.477610207,0.567837987,105.7758527
37:48.0,355,352.46,-0.010696455,0.024628301,1.000001116,0.012446039,-0.014679193,0.047796659,1.457843415,0.577014329,105.8983323
37:49.0,356,353.08,-0.009848128,0.024701093,0.999998818,0.010906744,-0.003905197,0.035580832,1.463694965,0.574292851,105.9904671
37:50.0,357,354.06,-0.009835019,0.024928002,1.000000044,0.010113423,-0.009104665,0.011257399,1.466732612,0.558520146,106.1297541
37:51.0,358,355.06,-0.009520763,0.025023773,1.000001993,0.010304872,1.46E-05,0.012659667,1.478661134,0.543420082,106.2560999
37:52.0,359,356.04,-0.009317392,0.025567041,1.000032121,0.008136848,-0.003819819,0.026107298,1.490387418,0.525402043,106.4131465
37:53.0,360,357.04,-0.008206215,0.025608746,0.999900436,0.005026209,0.002240787,0.034137849,1.495972961,0.495644433,106.5614559
37:54.0,361,358.02,-0.008455714,0.025586683,0.999991918,0.020208655,-0.012598916,-0.017195069,1.50036259,0.488704003,106.660999
37:55.0,362,359,-0.008478467,0.025324675,0.999993006,0.015928685,-0.011763358,0.000584048,1.507283042,0.479464892,106.7813866
37:56.0,363,360,-0.008079308,0.025853762,0.999769814,0.016133247,-0.013612794,0.063395564,1.515253352,0.462171073,106.9267942
37:57.0,364,360.98,-0.008966529,0.025613231,0.999789209,-0.045534524,0.084944523,-0.190629604,1.485193415,0.529605374,106.9959473
37:58.0,365,361.96,-0.009165378,0.025712803,0.999954624,0.113360802,-0.010898495,-0.025005848,1.49395306,0.513212421,107.0648146
37:59.0,366,362.94,-0.008706609,0.023365883,1.00032737,0.73146327,0.158882928,0.099032474,1.422607627,0.568188981,107.2146937
38:00.0,367,363.92,0.028154135,-0.066334831,1.027484029,-9.925023763,9.783631497,9.247716558,-3.182926496,2.100874049,108.9417939
38:01.0,368,364.86,-0.139043836,-0.035019678,0.936452519,-12.71480148,-11.0349617,-31.3658765,-5.297183373,2.326027301,108.7390906
38:02.0,369,365.74,0.062485589,-0.154973392,1.014874863,10.78155652,-0.046964574,11.8025486,-6.938743758,-2.360072954,100.5344557
38:03.0,370,366.72,0.033373625,-0.009728111,1.034561798,5.030429174,-0.147053085,8.988203406,0.028013923,-1.478037717,106.6860147
38:04.0,371,367.7,0.016331852,-0.012790312,1.000114688,-2.047786587,0.688248947,7.330499853,-1.349780011,-0.224136455,114.5825383
38:05.0,372,368.68,0.043961898,-0.026537831,0.992286282,2.311186566,2.662783902,7.356432982,-1.167842968,-1.774573252,121.9685244
38:06.0,373,369.66,0.033823814,0.001724377,1.005396359,1.924420804,0.119539879,7.884928152,0.187669118,-1.681520941,129.4427985
38:07.0,374,370.64,0.009179591,0.034216348,0.991197624,1.425019093,1.186810619,7.524267121,2.050978698,-0.680676396,137.3537477
38:08.0,375,371.6,-0.003496177,0.047048306,0.995178979,-1.873899894,0.902848303,6.884962469,2.47167378,0.056311758,144.4550716
38:09.0,376,372.58,-0.014377504,0.040044517,0.988042186,-1.736641017,0.747676407,6.10455476,2.1486257,0.880675736,151.007398
38:10.0,377,373.56,-0.021909303,0.037718685,0.988895555,-0.580584192,0.161111496,5.494518225,2.324008671,1.34381504,156.7814812
38:11.0,378,374.54,-0.025995039,0.043516427,0.997280551,-0.000937018,-0.427577921,5.101896105,2.796988246,1.51424419,161.8027399
38:12.0,379,375.52,-0.018407993,0.035560265,0.998549743,-0.307666888,-0.113816133,5.073643162,2.292493365,1.022275791,166.7456003
38:13.0,380,376.5,-0.005968382,0.02657068,0.999647015,-0.231149573,-0.266215456,3.947713065,1.428968574,0.494792436,170.9470686
38:14.0,381,377.48,-0.004133745,0.020462643,0.999737398,0.552354333,0.456366146,3.690382981,1.322043326,0.649209104,175.986489
38:15.0,382,378.46,-0.0164624,0.02826604,0.995637026,0.494778016,0.31017605,3.18931183,1.760047848,0.798863636,200.2905014
38:16.0,383,379.44,-0.009504472,0.035080113,1.000551856,0.139065696,-0.291774202,3.375881854,2.285767658,0.4196642,-201.1945864
38:17.0,384,380.42,0.001785739,0.036513237,0.997806018,-0.274261551,0.021873749,2.859167608,2.010679086,0.038840851,-176.8184302
38:18.0,385,381.4,-0.001346269,0.02395599,1.000579472,0.28068306,0.125775801,2.55714281,1.55044485,0.219585983,-171.9726868
38:19.0,386,382.38,-0.031854865,0.006382677,0.998987173,-3.866414491,4.196231323,2.952476679,-0.171824307,2.413808605,-169.4031207
38:20.0,387,383.36,-0.06234256,-0.037985311,1.000196537,0.511139016,-1.283417208,-0.674753767,-1.834931007,3.141428589,-168.0520002
38:21.0,388,384.34,-0.056104758,-0.02442729,1.004548797,0.870524213,0.927856423,-0.908475057,-1.298904736,3.432242865,-169.1511592
38:22.0,389,385.32,-0.06934688,-0.020724841,1.002188192,-0.102551923,-0.308805062,1.293388879,-1.192894257,3.898492923,-168.8162611
38:23.0,390,386.3,-0.069898547,-0.02050273,0.995956565,0.25630271,0.053295514,1.123965497,-1.047993388,3.731668588,-166.9452791
38:24.0,391,387.28,-0.068242068,-0.013560021,0.999114803,0.430443116,-0.073364253,-0.409503193,-0.751421052,3.855070482,-166.9959339
38:25.0,392,388.26,-0.053208384,-0.003931218,0.990662071,2.093441998,-1.044235713,1.079786255,-0.033203068,3.117221795,-167.4988647
38:26.0,393,389.24,-0.113033479,-0.02978378,1.001249959,-5.944680976,2.459982932,-10.26881993,-2.943180232,6.381155203,-166.8612591
38:27.0,394,390.22,-0.093584952,-0.117721368,0.992255205,-0.428980958,-4.655515877,0.946965254,-6.199100072,4.290369775,-168.1229543
38:28.0,395,391.2,-0.10146366,-0.137817172,0.993253564,-2.641360931,0.410771943,4.45070933,-7.428047335,6.380495786,-164.6365467
38:29.0,396,392.18,-0.023282851,-0.056175384,0.994448462,14.23562543,-7.600748178,-12.07716442,-2.843270096,1.045203547,-162.2179848
38:30.0,397,393.16,-0.036613477,0.058224656,1.000361841,-0.065120197,10.15995982,6.628420379,3.568763769,2.825271174,-168.6938316
38:31.0,398,394.14,-0.10065996,0.114854036,0.9727806,2.53122406,-0.560897357,26.59530434,6.169741629,4.35407761,-158.9929235
38:32.0,399,395.1,-0.072028934,0.02783193,1.003551552,-8.485731628,-9.189144645,-1.290055305,0.277925425,2.725691017,-146.6850347
38:33.0,400,396.08,0.012272563,-0.002530313,1.000519532,-0.126756083,0.080508449,3.951727587,0.904493442,-0.554708427,-151.7113278
38:34.0,401,396.92,-0.023308409,0.005304899,0.99943691,1.413010588,0.918565757,-43.46599542,0.697865201,0.83528632,-164.4758024
38:35.0,402,397.46,-0.00492606,0.024818174,0.999005327,-0.04520253,-1.222475131,2.93403744,1.209814005,-0.305577354,-175.2016328
38:36.0,403,398.16,0.006179812,0.011518925,0.999867993,0.046509971,0.072456525,-0.367820795,0.909397761,-0.244502471,-172.7442037
38:37.0,404,398.88,0.007153291,0.010313201,1.000065089,-0.008146547,0.022668489,0.728703627,0.785580881,-0.370462782,-172.553866
38:38.0,405,399.82,0.007512719,0.018124073,1.000188064,0.053045141,0.142247673,0.02775823,0.861024356,-0.391939231,-171.065232
38:39.0,406,400.8,0.006726713,0.011581912,1.000213142,-0.040380226,0.00460338,1.569057086,0.641606198,-0.34761987,-170.9536019
38:40.0,407,401.78,0.005990989,0.010552383,1.000011486,0.012741399,-0.000625873,0.049291578,0.669418246,-0.34912658,-170.3989895
38:41.0,408,402.76,0.007044917,0.009090377,1.000015267,0.017767046,0.025828513,1.430674449,0.626650874,-0.366451057,-170.0061908
38:42.0,409,403.74,0.005839624,0.010125709,0.99982875,0.007429202,0.021195776,2.653885072,0.56438567,-0.368354804,-167.2434995
38:43.0,410,404.64,0.005916745,0.009927335,1.000194201,0.042199916,0.186800606,1.929318861,0.599779673,-0.322373887,-165.0728163
38:44.0,411,405.62,0.00542721,0.010927563,1.000315718,-0.006791859,0.058802464,0.526643497,0.59886192,-0.341847856,-163.2949251
38:45.0,412,406.6,0.004511909,0.009212009,0.999887784,0.014237487,-0.205285713,0.407445026,0.577971727,-0.327591214,-162.9855012
38:46.0,413,407.58,0.002582138,0.008759347,0.999869401,0.020586592,0.426442908,2.300733781,0.552976126,-0.099189335,-161.5873888
38:47.0,414,408.56,0.007832931,0.011855245,1.000393492,-0.000683457,-0.076681167,-0.024969648,0.697392238,-0.451287051,-160.1617477
38:48.0,415,409.34,0.006697099,0.010669514,1.000004635,-0.000319923,-0.052323442,-0.723767718,0.629870524,-0.439553257,-160.3724316
38:49.0,416,410.34,0.009852327,0.010838226,1.0007893,-0.292636333,-0.19329266,-1.58237884,0.560385268,-0.518237143,-161.3165786
38:50.0,417,411.32,0.006390031,0.011695875,1.011039506,-2.363351937,0.911107197,-1.048993551,0.304879911,-0.220628508,-162.6682001
38:51.0,418,412.32,0.021325339,-0.050504218,0.97858246,-0.09511448,0.312330267,-0.018041355,-2.629526278,-1.338235975,-162.1038193
38:52.0,419,413.3,0.017100168,-0.054114385,0.991848329,1.463409867,-0.283231046,1.151741131,-2.797009108,-1.078517844,-161.1463558
38:53.0,420,414.3,-0.054797627,-0.010750343,1.003190897,7.697732946,10.90755054,-2.144399992,0.564956006,4.925753135,-161.6688989
38:54.0,421,415.28,-0.160624572,0.052438774,1.001304133,-1.290034679,7.67065608,3.704379628,2.615508639,9.830218163,-162.3718133
38:55.0,422,416.26,-0.197846354,0.069032732,0.992660298,8.305599745,2.956493114,-4.034694953,5.162339663,11.34911216,-162.3996239
38:56.0,423,417.26,-0.181003322,0.287201317,0.94318349,11.41335448,-10.70979916,1.384760668,16.01004565,8.825683042,-164.4268298
38:57.0,424,418.24,-0.041019189,0.222454626,0.965673625,-15.3500678,-5.384177864,9.731111356,10.06897124,2.22617706,-164.9480598
38:58.0,425,419.24,0.057186347,0.077241744,0.992966393,-5.345055563,2.545937255,25.9202697,4.942087871,-3.483478445,-124.7483939
38:59.0,426,420.22,-0.010095124,-0.020777526,0.997922354,-3.260118902,6.048121355,27.74088432,0.087035692,1.182686143,-90.22719822
39:00.0,427,421.22,-0.012707331,0.062818102,1.004617736,4.87294367,-3.635929056,15.08652184,5.379224631,-1.538331204,-71.12111533
39:01.0,428,422.2,0.037485705,0.027583047,0.996422596,-5.585414627,1.123582704,10.99305291,0.62853598,-1.595697183,-58.16440872
39:02.0,429,423.18,-0.005255412,-0.032312678,0.998829009,1.092625751,2.840203384,8.351804552,-1.172743478,0.832696944,-49.35335402
39:03.0,430,424.18,-0.039044421,0.03693984,0.999000246,7.495184716,-1.0314408,3.672299197,2.62828416,2.043597536,-42.7408808
39:04.0,431,425.16,-0.019220443,0.090443049,0.995233252,-1.073347325,0.140505045,4.544435581,4.588614322,1.231373536,-38.37413491
39:05.0,432,426.16,-0.011881904,0.051971072,0.99913613,-3.470189362,-0.343749721,-5.112755043,2.370364292,0.819671956,-40.18516339
39:06.0,433,427.14,0.001234839,0.007667824,1.009277228,0.13588079,-2.023349144,-1.978736643,0.545908629,-0.394394952,-42.84718978
39:07.0,434,428.14,0.011535989,0.004740869,0.999767194,-0.573150916,-1.077577204,3.127715965,0.318524962,-0.774139567,-43.33240543
39:08.0,435,429.12,0.015808618,-0.007328906,1.00390481,-2.400292307,-0.646172933,-18.51383909,-0.011520186,-1.086881348,-56.24852421
39:09.0,436,430.1,0.000177723,0.008823337,0.998852788,0.227304163,0.778180913,-2.569005667,0.329565596,0.101542019,-60.0765218
39:10.0,437,431.1,0.017191001,0.005181514,1.002691716,1.202478047,1.356122383,0.106520392,0.01459943,-0.777921384,-60.21959378
39:11.0,438,432.08,0.01182889,-0.000971764,1.000969283,0.211691932,-1.220077437,17.5912185,-0.05647388,-0.907522871,-52.16872558
39:12.0,439,433.08,0.009750806,0.011663638,0.999367931,-0.51976524,-0.483705147,3.536570066,0.633813994,-0.77090773,-39.85815154
39:13.0,440,434.06,0.021668253,0.014231808,0.999991828,0.559776432,0.390858455,13.84769681,0.493523859,-0.906654381,-36.70733335
39:14.0,441,435.06,0.022421832,-0.007152022,0.999483723,1.168447964,0.796160969,1.683836138,-0.174172809,-0.988524146,-27.50966874
39:15.0,442,436.04,0.016087506,0.009273111,0.999811722,-0.071398106,0.080265634,12.40892545,0.158951384,-0.911810668,-18.95798078
39:16.0,443,437.02,0.011704946,-0.002558645,1.000194636,-0.241237416,-0.111436868,-1.788735928,-0.16620942,-0.579402302,-13.55375073
39:17.0,444,438.02,0.017952804,0.017877494,0.999441624,0.808195734,0.481192014,0.312379872,-0.02220789,-0.521808665,-19.32319935
39:18.0,445,439,0.01407915,-0.002590558,1.000874635,-0.857450392,-0.700150895,-3.360229555,-0.257837571,-0.865577731,-18.03494673
39:19.0,446,440,0.004023149,0.001261962,1.000339959,0.448010813,0.400007839,13.18017166,0.532063854,-0.474615567,-9.507099607
39:20.0,447,440.98,0.010888372,0.005883451,1.000459082,0.703269927,0.484931847,7.024532785,0.256254447,-0.490652203,-0.118492987
39:21.0,448,441.96,0.005477834,0.006547484,1.000281284,-1.546322032,-0.511007244,21.39112456,0.083759462,-0.371900711,13.7961065
39:22.0,449,442.96,0.009497017,-0.001034846,0.99979597,0.291928401,0.263467105,9.228635483,-0.0534818,-0.192364648,31.77475217
39:23.0,450,443.94,0.003763454,0.010720541,1.000143487,0.10220267,0.081665274,3.36530044,0.116034722,-0.146125733,37.78087559
39:24.0,451,444.94,-0.003965893,-0.013685781,1.000300312,0.476655822,-0.045301662,-1.52181345,-0.321947966,0.205502092,36.52471305
39:25.0,452,445.92,0.020049447,0.014179715,1.000028801,-0.800152921,-0.72144351,-55.16975119,0.530271866,-0.79206742,8.235611978
39:26.0,453,446.92,0.004025455,0.000217847,0.99995033,-0.56866461,0.31572122,-13.44624958,-0.110579641,-0.545930349,-18.15870858
39:27.0,454,447.9,0.010893296,0.00707955,1.001388364,-0.118697756,-0.241609789,-8.00274323,0.323805534,-0.788382758,-28.60586837
39:28.0,455,448.9,0.011197207,0.004278067,0.999886886,0.148512191,0.069695001,-5.659136125,0.300806396,-0.785456409,-34.92940551
39:29.0,456,449.88,0.009848313,0.006564272,0.999995852,-0.12219179,-0.059998016,-2.189713624,0.386822144,-0.664884358,-38.71530422
39:30.0,457,450.86,0.008958648,0.008045953,1.000006019,-0.028219167,-0.029949127,-0.651553102,0.37592,-0.609027885,-39.80425618
39:31.0,458,451.86,0.008836327,0.00694438,1.000000675,-0.000270436,-4.82E-05,0.009226686,0.414219145,-0.56344525,-39.79850392
39:32.0,459,452.84,0.008979081,0.006990749,1.00000006,3.97E-06,0.000108401,0.007468776,0.411075917,-0.535323469,-39.66994594
39:33.0,460,453.84,0.008547911,0.006982118,1.000000004,2.78E-06,1.60E-05,0.067985217,0.405864689,-0.523484827,-39.52956196
39:34.0,461,454.82,0.008280845,0.006839174,1,4.65E-07,1.78E-06,-0.006273994,0.404006077,-0.517951076,-39.35713915
39:35.0,462,455.8,0.008029465,0.006424828,1,4.85E-08,1.36E-07,0.02769757,0.395209714,-0.512894541,-39.22151862
39:36.0,463,456.8,0.008108399,0.006681118,1,4.22E-09,7.28E-09,0.005347296,0.39314837,-0.511231718,-39.08547318
39:37.0,464,457.78,0.008554015,0.005975328,1,1.61E-09,5.23E-09,0.076021593,0.391042913,-0.512018018,-38.94962293
39:38.0,465,458.78,0.008205115,0.006878271,1,-3.26E-08,5.28E-08,-0.010804408,0.395038658,-0.506111633,-38.74886655
39:39.0,466,459.76,0.0084808,0.006243309,1.000000001,-8.62E-07,2.99E-07,-0.061137339,0.39726806,-0.505562138,-38.7061428
39:40.0,467,460.74,0.008073069,0.007111529,1.000000013,-1.15E-05,-6.08E-07,0.011395528,0.392821371,-0.508585398,-38.5716152
39:41.0,468,461.74,0.008774128,0.006519226,1.000000143,-0.000116541,-3.90E-05,0.091898923,0.39223823,-0.511626992,-38.40226215
39:42.0,469,462.72,0.008390168,0.006104707,1.000001089,-0.000728604,-0.000699097,0.01574079,0.394548693,-0.508493285,-38.28982511
39:43.0,470,463.7,0.00822563,0.006542151,1.00000325,-7.96E-05,-0.007882583,-0.008017476,0.3956299,-0.507012779,-38.17814466
39:44.0,471,464.68,0.010745021,0.01039344,0.999892744,0.237059702,-0.028981872,0.208518722,0.491288907,-0.527988377,-38.1334372
39:45.0,472,465.66,0.008232685,0.008745895,0.999981462,-0.00718136,0.016657819,-0.087596365,0.511851002,-0.510138353,-37.63930604
39:46.0,473,466.64,0.008720087,0.009359486,1.000002624,-0.015670716,0.006911679,-0.17840794,0.499404075,-0.530310649,-37.64069683
39:47.0,474,467.62,0.008984081,0.009005821,1.000000657,-0.000391397,0.000369373,0.001665181,0.507600067,-0.53886623,-37.54174531
39:48.0,475,468.6,0.008999422,0.009089326,1.00000008,-1.64E-05,-1.41E-06,0.003983952,0.50869022,-0.536889173,-37.41615688
39:49.0,476,469.58,0.009001529,0.008385295,1.000000007,1.14E-06,-3.57E-06,0.069600464,0.502278511,-0.537211122,-37.28064132
39:50.0,477,470.56,0.00901264,0.00793228,1,3.29E-07,-5.52E-07,0.012217378,0.505075631,-0.5359939,-37.14112252
39:51.0,478,471.54,0.008857782,0.008496944,1,4.17E-08,-5.49E-08,-0.267111718,0.502037156,-0.530652325,-37.07188081
39:52.0,479,472.52,0.009008555,0.008167603,1,3.61E-09,-3.69E-09,-0.064395326,0.498674103,-0.534666036,-37.17292365
39:53.0,480,473.5,0.008646911,0.008923074,1,1.94E-10,-8.63E-11,0.000162871,0.502758837,-0.532094172,-36.99380556
39:54.0,481,474.48,0.009001971,0.008738502,1,-2.05E-12,1.98E-11,0.022006077,0.504421545,-0.530995763,-36.82711149
39:55.0,482,475.24,0.009003664,0.008086826,1,-5.50E-12,5.91E-12,-0.083426853,0.503870615,-0.527721035,-36.7719601
39:56.0,483,476.22,0.009002834,0.008144704,1,-3.27E-13,1.94E-13,-0.014384988,0.49763566,-0.529522668,-36.70079041
39:57.0,484,477.2,0.009031223,0.008047827,1,-1.96E-15,-2.28E-14,0.132406731,0.492152667,-0.530901987,-36.50646221
39:58.0,485,478.18,0.008841383,0.008030362,1,2.65E-15,-5.36E-15,0.004460971,0.498649677,-0.526940219,-36.31187837
39:59.0,486,479.16,0.008542926,0.00836712,1,4.37E-16,-6.42E-16,-0.124563565,0.495797229,-0.525513681,-36.16922025
40:00.0,487,480.14,0.009009732,0.007983795,1,4.52E-17,-5.29E-17,-0.004912268,0.488483661,-0.527944708,-36.17788534
40:01.0,488,481.12,0.008670474,0.007936301,1,3.18E-18,-2.56E-18,0.247633651,0.482396422,-0.531936897,-35.8480284
40:02.0,489,482.1,0.009004825,0.008313798,1,9.40E-20,7.45E-20,0.007605587,0.486092337,-0.525553547,-35.69696356
40:03.0,490,483.08,0.008993916,0.008018332,1,-1.40E-20,3.50E-20,-0.235406042,0.477548131,-0.522161406,-35.7393846
40:04.0,491,484.06,0.0089965,0.007995311,1,-3.06E-21,4.86E-21,-0.041069116,0.472154894,-0.52931433,-35.79402345
40:05.0,492,485.04,0.009015667,0.00775147,1,-3.57E-22,4.52E-22,-0.069953311,0.470777829,-0.52971415,-35.71360325
40:06.0,493,486.02,0.008878588,0.008083193,1,-2.88E-23,2.74E-23,-0.00110539,0.476285307,-0.530683876,-35.56554313
40:07.0,494,487,0.008493596,0.008053779,1,-1.32E-24,2.46E-25,-0.211171981,0.467937108,-0.526896173,-35.48477158
40:08.0,495,487.98,0.009003055,0.007602317,1,5.21E-26,-2.10E-25,0.008976241,0.455467574,-0.530923805,-35.51560125
40:09.0,496,488.96,0.009033457,0.007579115,1,2.02E-26,-3.54E-26,0.115599033,0.451013315,-0.532159189,-35.33423682
40:10.0,497,489.94,0.008900426,0.007844211,1,2.72E-27,-3.70E-27,0.048525207,0.455840531,-0.529951258,-35.12675068
40:11.0,498,490.92,0.008992691,0.007866657,1,2.48E-28,-2.64E-28,-0.158768331,0.45669539,-0.525974422,-35.09619455
40:12.0,499,491.9,0.009033632,0.007250028,1,1.45E-29,-8.32E-30,0.118327129,0.447129283,-0.531442215,-34.98656628
40:13.0,500,492.88,0.008914408,0.008083879,1,5.25E-32,1.08E-30,0.03714333,0.452715673,-0.527874912,-34.7626474
40:14.0,501,493.86,0.009004967,0.00800669,1,-1.23E-31,2.46E-31,0.017982059,0.453258315,-0.527617976,-34.62674008
40:15.0,502,494.84,0.008812294,0.008045843,1,-1.42E-32,2.97E-32,-0.192260297,0.456136203,-0.52494002,-34.54784836
40:16.0,503,495.82,0.00899853,0.007651715,1,3.92E-32,2.50E-32,0.037880592,0.448860077,-0.530344208,-34.53562241
40:17.0,504,496.78,0.009076615,0.007731878,1,6.73E-33,3.20E-31,0.352210152,0.443900951,-0.534166697,-34.17888795
40:18.0,505,497.76,0.008657918,0.007978058,1,-3.61E-30,2.95E-30,-0.018733459,0.460380511,-0.52244732,-33.91824584
40:19.0,506,498.74,0.00897619,0.00798447,1,-6.38E-29,1.62E-29,-0.016089507,0.459090491,-0.523706662,-33.78899531
40:20.0,507,499.72,0.008989503,0.00779835,1,-7.15E-28,-4.27E-29,0.032679749,0.455722142,-0.527217733,-33.70681932
40:21.0,508,500.7,0.008954188,0.007959936,1,-5.45E-27,-2.54E-27,0.236088309,0.452267406,-0.528776191,-33.4301274
40:22.0,509,501.68,0.008964745,0.007083015,1,-1.62E-26,-3.96E-26,-0.005582177,0.452859452,-0.522468435,-33.23344018
40:23.0,510,502.66,0.008991523,0.007655428,1,3.19E-25,-4.11E-25,0.045897618,0.447798277,-0.524324938,-33.10130321
40:24.0,511,503.64,0.009001493,0.007637208,1,7.36E-24,-2.81E-24,0.010939399,0.446557515,-0.523943854,-32.96085033
40:25.0,512,504.62,0.009065851,0.00706172,1,9.32E-23,-3.66E-24,0.225647585,0.44269049,-0.527057141,-32.78660324
40:26.0,513,505.6,0.008602916,0.007258559,1,8.16E-22,2.46E-22,-0.021925345,0.445913078,-0.52239867,-32.53317613
40:27.0,514,506.48,0.008890101,0.007303842,1,-1.50E-21,4.12E-21,-0.073396355,0.444172927,-0.525050653,-32.47117385
40:28.0,515,507.18,0.009009878,0.006989289,1,-2.92E-20,-1.53E-20,0.023013803,0.440243926,-0.52294982,-32.39890375
40:29.0,516,507.84,0.00891016,0.007079634,1,2.10E-19,7.22E-21,0.196660402,0.432695723,-0.524157761,-32.23986447
40:30.0,517,508.6,0.008545048,0.008082688,1,-5.56E-19,6.27E-19,-0.017222007,0.452136891,-0.518865661,-32.06636521
40:31.0,518,509.52,0.008814039,0.007890263,1,-1.17E-17,1.62E-18,0.002556052,0.455393614,-0.519636653,-31.97485857
40:32.0,519,510.5,0.008523223,0.007921519,1,-1.16E-16,-2.03E-17,-0.027365648,0.456470037,-0.51891181,-31.85612111
40:33.0,520,511.48,0.008807846,0.008056297,1,-7.28E-16,-5.33E-16,0.030827154,0.459047239,-0.521777722,-31.71261523
40:34.0,521,512.48,0.008516455,0.007744583,1,-1.62E-15,-7.30E-15,0.014792857,0.459045628,-0.521365672,-31.54063309
40:35.0,522,513.46,0.008543374,0.007869063,1,7.02E-14,-7.18E-14,-0.380715471,0.463087807,-0.515364883,-31.60453395
40:36.0,523,514.44,0.009047225,0.007990216,1,1.40E-12,-4.47E-13,0.040238773,0.461839576,-0.525610462,-31.64784033
40:37.0,524,515.44,0.008908552,0.007998664,1,1.77E-11,-9.23E-13,-0.038166061,0.465279325,-0.523876569,-31.56269531
40:38.0,525,516.42,0.008627702,0.007994449,1,1.57E-10,4.45E-11,-0.005509024,0.46879451,-0.523932936,-31.38668727
40:39.0,526,517.42,0.008797513,0.007945203,1,1.04E-09,8.59E-10,-0.175720732,0.467457188,-0.520342365,-31.36562067
40:40.0,527,518.4,0.009018257,0.008025138,1,-1.16E-09,1.10E-08,0.002618174,0.46561899,-0.525217549,-31.30980727
40:41.0,528,519.38,0.009001877,0.008000405,1,-1.36E-07,9.73E-08,0.041934569,0.469390699,-0.525163532,-31.1580258
40:42.0,529,520.38,0.009000118,0.007999887,1.000000001,-2.24E-06,6.40E-07,-0.011320173,0.471172196,-0.523390227,-31.02866162
40:43.0,530,521.36,0.009001559,0.008002141,1.000000028,-2.59E-05,-8.53E-07,-0.019766348,0.468586697,-0.523637196,-30.93400036
40:44.0,531,522.34,0.009028912,0.008033787,1.000000362,-0.000205323,-8.55E-05,0.021485475,0.469300921,-0.524120517,-30.80619881
40:45.0,532,523.34,0.008890172,0.00793048,1.000003586,-0.001095477,-0.001400807,-0.13806397,0.46692184,-0.520719639,-30.76309667
40:46.0,533,524.32,0.009036625,0.008784386,1.000020988,0.006930239,-0.015948986,0.017145164,0.478340857,-0.529491683,-30.681011
40:47.0,534,525.3,0.011983413,0.018706673,0.999954785,0.286415597,-0.179812042,-1.010928539,0.600771282,-0.55292772,-30.75676358
40:48.0,535,526.28,0.0096712,-0.011948569,0.998832531,0.016865256,0.270552444,-1.152014729,-0.04220552,-0.64154969,-31.68744641
40:49.0,536,527.1,0.010929003,0.00217264,1.000216463,0.171602476,-0.086722085,-1.252867182,0.38793437,-0.686572199,-32.49011991
40:50.0,537,527.74,0.010106448,0.013027623,1.000143158,-0.163457462,0.053082789,-4.495199647,0.312558555,-0.676476166,-34.51757735
40:51.0,538,528.22,0.009350519,0.010383466,0.999837903,-0.423991735,0.280461265,-4.497652162,0.444029366,-0.643222659,-36.57063336
40:52.0,539,528.74,0.00630156,0.00835271,1.00014665,-0.020440246,0.078424022,-4.002534281,0.258199085,-0.460425581,-38.86390299
40:53.0,540,529.62,0.009204128,0.01406158,1.000564756,-0.229761021,0.108128223,-5.450186543,0.493470614,-0.543118632,-41.35880516
40:54.0,541,530.6,0.006509933,-0.021530904,1.000372896,0.304732327,-0.262215897,-2.88690881,0.12789516,-0.52595035,-45.34047401
40:55.0,542,531.58,0.007282159,0.019743924,0.999643368,-0.153709415,-0.210417097,-4.043321222,0.326372274,-0.584733021,-49.91857676
40:56.0,543,532.56,0.009911935,0.002606121,0.999972836,-0.351165882,-0.111536007,-5.136664856,0.661360877,-0.610649933,-54.76496518
40:57.0,544,533.54,0.010608042,0.006806496,1.000351968,-0.111617409,-0.055625576,-1.061014279,0.403115135,-0.658346699,-57.38896467
40:58.0,545,534.52,0.010225131,0.006912642,0.999976237,-0.007498066,-0.039896409,-1.306708275,0.391289819,-0.629544992,-58.06061831
40:59.0,546,535.5,0.012147679,0.007394884,0.999993785,0.247395436,0.158866719,13.84109623,0.410725188,-0.547002383,-51.05978935
41:00.0,547,536.48,0.005403365,0.006966361,0.999141759,-0.437616234,0.337781082,12.49128328,0.496942468,-0.294688566,-32.21014114
41:01.0,548,537.46,0.005348337,0.001957111,1.000455525,-0.037228175,0.754659824,9.89527464,0.182924804,-0.183353904,-21.83978332
41:02.0,549,538.44,0.005873846,0.003417277,1.000624678,-0.46309358,-0.632600762,1.789696064,0.169233557,-0.44000409,-17.28973024
41:03.0,550,539.42,0.009837736,0.005250582,0.999836038,0.076980377,-0.00525386,-3.682847349,0.21210483,-0.550993344,-18.53895856
41:04.0,551,540.4,0.007851717,-0.001911273,1.000217528,-0.148043382,-0.079459465,-0.843964842,0.225151886,-0.578457355,-19.61968001
41:05.0,552,541.36,0.006927003,0.00194681,1.00021084,-0.301292671,-0.264179452,-1.778855483,0.31511031,-0.523273253,-20.56950508
41:06.0,553,542.34,0.008655632,-0.002299849,1.000576808,-0.147182126,-0.047037244,3.362010914,-0.394259196,-0.479698802,-20.50064174
41:07.0,554,543.32,0.007751761,0.022719263,1.000064506,0.072027776,-0.155747985,-1.55595708,0.343934842,-0.572126338,-18.66254823
41:08.0,555,544.3,0.00187625,-0.039030135,0.997486616,0.322475947,-0.083329742,-0.81287569,-0.605290658,-0.541995249,-20.2951782
41:09.0,556,545.28,0.011486066,-0.004036255,1.000349988,-0.364537915,0.161979301,-2.051513995,0.062360139,-0.644880197,-19.07563777
41:10.0,557,546.26,0.012430445,0.018940087,1.000099033,-0.159034321,0.038242059,-0.675495923,0.25253572,-0.688744161,-22.4214929
41:11.0,558,547.24,0.011369111,0.013773123,1.000016764,-0.247675596,-0.27850876,-16.14389854,0.453826487,-0.649307969,-29.19667667
41:12.0,559,548.22,0.010712089,-0.023152974,1.000800079,0.065799801,-0.004572109,-3.119937354,-0.310201318,-0.776685951,-36.85097941
41:13.0,560,549.2,0.012901686,0.014704599,0.999904476,0.561371669,-0.422913434,1.151754122,0.374046883,-0.898550063,-37.17337874
41:14.0,561,549.98,0.011392721,-0.008710459,1.000210252,-0.143097752,-0.166555392,0.059183507,0.092600235,-0.715867584,-36.61444741
41:15.0,562,550.96,0.012583762,0.006222889,0.999640265,-0.131181842,0.004726442,-0.670651337,-0.095917774,-0.732506201,-36.75111042
41:16.0,563,551.96,0.016669757,0.019294327,0.999750869,-0.175902306,0.256810078,4.586901424,0.275733203,-0.818217413,-36.02220302
41:17.0,564,552.94,0.011555808,-0.021087711,0.999869621,1.461834996,-0.221740864,1.208940495,-0.420469323,-0.721706432,-33.50457229
41:18.0,565,553.94,0.01052774,0.008888708,0.999727911,-0.538996455,-0.166510752,0.405326462,0.285573053,-0.662501131,-32.56262489
41:19.0,566,554.92,0.014965061,-0.000501851,1.000049647,0.290030552,0.068988402,-0.169989616,0.060172841,-0.818775636,-32.21393342
41:20.0,567,555.9,0.012665688,0.005384338,0.999786032,-0.214566597,-0.127362343,-0.852665506,0.32451721,-0.793724587,-32.40477478
41:21.0,568,556.9,0.013125789,0.007098865,0.999983816,0.061226387,0.020768051,-0.245635494,0.401700168,-0.775522421,-32.96638169
41:22.0,569,557.88,0.014221405,0.002370842,1.000001124,-0.243151739,0.002217429,-0.065283025,0.126052384,-0.837297698,-32.89073863
41:23.0,570,558.88,0.01768386,0.014542826,0.999600173,0.47500297,0.013340091,-1.473563819,0.237572213,-0.864368808,-32.89436126
41:24.0,571,559.86,0.010532117,-0.035025034,0.998475079,-0.376900302,0.176527292,-0.533166128,-1.353582412,-0.673772846,-34.17602316
41:25.0,572,560.84,0.013202802,-0.025128964,1.001589528,-2.332093676,0.028019359,0.592810231,-1.000844616,-0.690863629,-35.24271005
41:26.0,573,561.84,0.007944712,0.017481084,1.000709412,1.041029485,0.085695559,-7.209164417,-0.083708947,-0.391940493,-38.118705
41:27.0,574,562.82,0.009730938,-0.009202791,1.001287904,-0.914231898,0.579700231,-2.258513175,-0.657748413,-0.602760992,-42.77269691
41:28.0,575,563.8,0.014194012,-0.003701704,1.000554848,-0.375076702,0.046305816,-0.63717169,-0.385541668,-0.833123836,-44.20151292
41:29.0,576,564.8,0.01537011,-0.000724493,1.000020617,-0.095729925,-0.060397725,0.012710597,-0.272497161,-0.887013425,-44.18002264
41:30.0,577,565.78,0.014428652,-0.002472931,0.999999514,-0.174784038,0.014506831,0.016756638,-0.352150928,-0.842022341,-44.04064506
41:31.0,578,566.78,0.014647884,-0.002332504,0.999999783,0.019050836,-0.010864439,0.017115856,-0.246750761,-0.842136453,-43.90442448
41:32.0,579,567.76,0.015500547,-0.000899732,0.999999966,-0.215572208,0.100160613,0.021766758,-0.25799649,-0.815179909,-43.76697344
41:33.0,580,568.74,0.016146665,-0.000557526,0.999999997,-0.260673201,0.128325573,0.009100308,-0.273301778,-0.800346312,-43.63075152
41:34.0,581,569.74,0.014958339,-0.001844068,1,0.018465441,-0.00882767,0.003123717,-0.230813971,-0.820038414,-43.50150682
41:35.0,582,570.72,0.015181894,-0.001374466,1,0.001073075,-0.000530656,-0.001603778,-0.168114617,-0.853014336,-43.38066323
41:36.0,583,571.72,0.015751858,-0.000595483,1,-1.04E-05,2.85E-06,0.023247559,-0.106597132,-0.887721608,-43.24879205
41:37.0,584,572.7,0.016001304,4.57E-05,1,-8.78E-05,4.67E-05,-0.001481754,-0.072937978,-0.906695607,-43.11716682
41:38.0,585,573.68,0.015000451,-0.001861553,1,0.000388122,-0.000161182,0.012478541,-0.076803044,-0.904936695,-42.98654501
41:39.0,586,574.68,0.014697094,-0.002247802,1,0.011278243,-0.005429646,0.019564411,-0.131970668,-0.870832979,-42.85750304
41:40.0,587,575.66,0.015437011,-0.000739534,1,-0.120982937,0.054456889,0.013148853,-0.182059674,-0.844486926,-42.72238881
41:41.0,588,576.66,0.016073517,-0.000284227,1,0.005246817,-0.002906512,0.003004903,-0.134446484,-0.871535761,-42.58957956
41:42.0,589,577.64,0.014941082,-0.001888466,1,0.000172486,-9.03E-05,0.010519673,-0.114550599,-0.882868345,-42.46444996
41:43.0,590,578.62,0.014996884,-0.001472374,1,0.000652769,-0.000431668,0.024267763,-0.115191432,-0.881771898,-42.33001652
41:44.0,591,579.62,0.015831049,-0.000541313,1,-0.032081257,0.014067374,0.004577282,-0.098619476,-0.891321116,-42.20130342
41:45.0,592,580.6,0.015980703,-0.000668094,1,-0.003755415,0.001036194,0.003931454,-0.094091772,-0.894942192,-42.07294371
41:46.0,593,581.58,0.015233467,-0.001407625,1,-0.000440367,0.000129806,0.000724767,-0.079381162,-0.903296026,-41.9530816
41:47.0,594,582.58,0.014962829,-0.001945984,1,-4.68E-05,1.35E-05,0.019262256,-0.116454774,-0.880322945,-41.82178966
41:48.0,595,583.56,0.015896477,-0.000703942,0.999999992,2.52E-05,-1.80E-05,0.020283555,-0.085939267,-0.898826178,-41.68224133
41:49.0,596,584.56,0.015518811,-0.001006539,0.999999844,0.000335108,-0.000229195,0.009948708,-0.071244051,-0.906505132,-41.54983881
41:50.0,597,585.54,0.015025594,-0.001688861,0.999997981,0.002603693,-0.001893823,0.050814972,-0.090699957,-0.89666224,-41.41904725
41:51.0,598,586.52,0.01535965,-0.002005457,0.999982002,0.009057787,-0.008092725,0.266910907,-0.108639103,-0.88957266,-41.29723658
41:52.0,599,587.52,0.014711194,-0.001347307,0.999889004,-0.304468767,0.18898863,-4.172000274,-0.110732687,-0.787699428,-42.7452984
41:53.0,600,588.5,0.010492579,0.003806974,1.00035957,-0.838087213,0.417062302,-2.72760689,-0.150431067,-0.591101104,-45.18223119
41:54.0,601,589.5,0.014911686,-0.003835591,1.000207619,0.49236364,-0.325684785,-1.211240417,-0.141330416,-0.944449239,-47.04699931
41:55.0,602,590.48,0.018909266,-0.000117785,0.999882379,-0.013543119,-0.002973886,0.071348353,-0.105715691,-1.046874556,-47.35139736
41:56.0,603,591.46,0.017508951,-0.002304255,1.000025101,-0.025118694,-0.022708496,-0.131137874,-0.081471398,-1.022793131,-47.20510863
41:57.0,604,592.46,0.015244729,0.001727569,1.000395044,-1.260439293,0.7531435,2.985534023,-0.002369397,-0.783960666,-46.05572218
41:58.0,605,593.44,0.012612161,0.010002173,1.000862467,-0.066692486,0.470517205,1.163129456,0.121481207,-0.676693837,-43.84973162
41:59.0,606,594.42,0.013520639,0.000553215,1.000981461,2.065126033,-0.29701739,1.654744423,-0.313044828,-0.691144325,-43.2953236
42:00.0,607,595.42,0.020064335,-0.016488195,1.000357287,-0.759728776,-0.009278788,-3.713070811,-0.381468558,-0.984481549,-42.47326537
42:01.0,608,596.4,0.017329358,0.022193531,0.999599811,-0.245815042,-0.294266214,-2.94379542,0.163849734,-0.93078509,-46.91916264
42:02.0,609,597.4,0.011442127,-0.019032649,0.999089047,0.233501935,0.023021308,-0.866873934,-0.354205602,-0.694961291,-48.17177862
42:03.0,610,598.38,0.015791816,-0.00143789,1.000212185,-0.214722553,0.075352548,0.242966796,-0.056530124,-0.888905164,-48.44636957
42:04.0,611,599.36,0.016307395,0.000815625,1.00001776,-0.013609425,-0.004777658,-0.097746756,0.029446656,-0.943693213,-48.06252703
42:05.0,612,600.36,0.016972178,-1.80E-06,0.999984649,0.004161637,-0.000256114,0.001581217,0.043883614,-0.96648569,-47.94248219
42:06.0,613,601.34,0.017004581,2.98E-05,0.999755371,0.042439418,0.004819083,-0.025768705,0.055468896,-0.978155762,-47.82145098
42:07.0,614,602.32,0.017002451,-0.00021911,0.997606903,0.475701164,-0.01415048,-0.279690619,0.101640776,-0.998087134,-47.67511415
42:08.0,615,603.32,0.014209449,-0.036069296,1.009489999,-5.088789877,-0.416302932,6.763007273,-2.850213986,-0.844514659,-45.22099639
42:09.0,616,604.3,-0.000621319,-0.079693816,1.012475798,-2.02630528,-1.350327838,7.99704795,-4.612878993,-0.095499398,-38.736888
42:10.0,617,605.3,0.029073837,-0.058917775,1.005657695,2.188130607,-5.169142553,8.125415935,-2.936213262,-2.38117216,-31.37263224
42:11.0,618,606.28,0.043392149,-0.002325148,0.995342169,4.082193419,5.087312452,4.755130848,0.437232349,-1.389143928,-25.98577971
42:12.0,619,607.26,0.007343111,-0.014250151,0.987104617,-4.764688341,-3.00558483,10.27455319,-1.818776438,-1.140165011,-16.32179391
42:13.0,620,608.26,-0.061122781,-0.054618174,0.999611051,5.406250375,7.716528873,8.035269729,-1.79614097,4.847616751,-7.105715441
42:14.0,621,609.24,-0.085791448,0.042785964,1.002228656,0.750021567,-7.121211421,8.857650845,2.525522897,3.446013974,-0.531946427
42:15.0,622,610.24,0.067129317,0.004571755,0.985892488,-1.301293715,-1.637661465,7.897530412,-0.048054507,-3.572933218,10.25457107
42:16.0,623,611.22,0.047641688,-0.016980469,0.99450261,1.182089476,5.155533923,6.849974986,-0.538665895,-1.610854723,17.4900637
42:17.0,624,612.2,-0.039029101,0.003298019,0.997746639,0.925194679,2.811769777,5.519125437,0.477736987,2.459430818,23.70375974
42:18.0,625,613.2,-0.055345248,0.013384666,0.997574359,-0.653765828,-1.849129106,5.510536718,0.721330443,2.661078361,29.32598401
42:19.0,626,614.18,-0.017879205,-0.001078937,0.99863556,-1.157494278,-1.490612066,5.288037511,-0.127087845,0.850115236,34.75412837
42:20.0,627,615.16,-0.006693459,-0.017639864,0.999223328,-0.184783769,0.726276554,4.696361386,-0.863657981,0.657425407,39.86278705
42:21.0,628,616.16,-0.019770306,-0.016538473,1.000246115,0.414813017,0.259960455,4.059879043,-0.753803097,1.247085247,44.37971309
42:22.0,629,617.14,-0.015306384,-0.010288418,1.007418763,0.976594553,-2.447306258,3.423880329,-0.379336253,0.890760164,48.16712951
42:23.0,630,618.14,-0.007221526,-0.003201268,0.999069395,-0.374014648,0.132968012,1.208775982,-0.053800472,0.136011675,51.41598089
42:24.0,631,619.12,0.006823389,0.006071703,0.999682434,-0.028290657,-0.064651164,7.531110749,-0.087423138,0.327469969,54.55824882
42:25.0,632,620.1,-0.003219055,0.005592615,1.00010398,0.846278132,0.406741237,1.472058244,0.238997539,0.104366833,58.42679018
42:26.0,633,621.1,-0.000669957,0.006409211,0.999955406,-0.151986799,-0.143602821,0.687590044,0.333667964,0.108591847,59.7428563
42:27.0,634,622.08,0.001655627,0.007957633,1.000025291,-0.555131178,-0.372328067,-1.566996615,0.583775091,0.26422451,60.04516683
42:28.0,635,623.08,-0.009033828,0.004595923,1.000217956,1.200381556,0.357803158,-1.656840944,0.574032913,0.329515086,57.94041841
42:29.0,636,624.06,-0.004876538,0.007864492,1.000035654,-0.099798088,-0.06361082,-0.669547257,0.463844687,0.302418935,56.66947143
42:30.0,637,625.04,-0.003670871,0.005542246,0.999998757,-0.355338356,-0.144014659,-0.002771185,0.327209835,0.214821867,56.6798861
42:31.0,638,626.04,-0.002445047,0.002061851,0.999999543,0.045702628,-0.009936714,0.01162698,0.219172567,0.157176532,56.81108549
42:32.0,639,627.02,-0.00196935,0.001656065,0.999999943,0.034836888,-0.008280359,0.006581094,0.186934634,0.139133355,56.95093121
42:33.0,640,628.02,-0.001996764,0.001535462,1.000000091,-0.005653543,-0.000194662,0.004600555,0.147264884,0.137153014,57.07774596
42:34.0,641,629,-0.002009836,0.001924472,1.000000124,-0.001591944,-0.000412572,0.007259647,0.127284823,0.137742136,57.20597594
42:35.0,642,629.98,-0.002080454,0.002412253,0.999991259,0.023533873,0.009663411,-0.016649886,0.132387669,0.141243076,57.33714168
42:36.0,643,630.98,-0.002650272,0.012066301,0.999850801,0.735121263,0.293232085,-0.399440973,0.352315641,0.203203543,57.42400664
42:37.0,644,631.96,0.002028805,-0.002352886,0.999731826,1.289736963,0.497065944,-2.554414431,0.146997017,0.146784755,56.12151508
42:38.0,645,632.94,0.001512067,-0.001084013,0.999853058,0.555225862,0.191566547,-0.743078254,-0.052823921,-0.01134095,54.77053818
42:39.0,646,633.94,-0.001322763,-0.017807771,0.999614824,-0.532597671,0.100878137,-0.118958424,-0.946556336,0.074240109,54.40152916
42:40.0,647,634.92,9.70E-07,-0.008502753,1.000847929,0.241576081,-0.041342442,-0.483060226,-0.404741199,-0.023948994,54.12845672
42:41.0,648,635.92,0.000404788,-0.002912082,1.000013282,-0.005006666,-0.001909403,-0.001569753,-0.276618732,-0.06138835,54.00317099
42:42.0,649,636.9,1.41E-05,-0.0029911,0.999998219,0.000477611,-0.000450981,0.016461497,-0.227221942,-0.060024207,54.13107573
42:43.0,650,637.88,3.79E-07,-0.002999424,0.999999613,0.00012328,-5.59E-05,0.000838291,-0.209754661,-0.058602532,54.26772678
42:44.0,651,638.88,-4.91E-08,-0.00299998,0.999999957,1.42E-05,-4.76E-06,0.020791279,-0.204414274,-0.058945659,54.39606753
42:45.0,652,639.86,-1.23E-08,-0.003000002,0.999999996,1.28E-06,-2.80E-07,0.010437264,-0.202709391,-0.057435655,54.52889511
42:46.0,653,640.84,-7.15E-09,-0.003000001,1,7.48E-08,-1.15E-09,0.010816373,-0.202010989,-0.058034756,54.66080088
42:47.0,654,641.84,-1.61E-07,-0.003,1,1.40E-09,1.71E-09,0.004894674,-0.201843692,-0.058054357,54.79289335
42:48.0,655,642.82,-2.46E-06,-0.002999997,1,-2.56E-09,-8.69E-10,0.008733098,-0.200954381,-0.058069353,54.91335741
42:49.0,656,643.82,-2.71E-05,-0.002999968,1,-1.98E-08,-1.09E-08,0.010053894,-0.20096766,-0.058474605,55.05370552
42:50.0,657,644.8,0.000177945,-0.002999837,1,-1.05E-07,-4.86E-08,0.007171733,-0.19864639,-0.056708883,55.18235042
42:51.0,658,645.78,6.99E-06,-0.003000697,1,3.41E-07,3.57E-07,0.016895091,-0.200486744,-0.057081855,55.31724574
42:52.0,659,646.78,-1.49E-05,-0.003023718,1,1.59E-05,1.08E-05,-0.014845079,-0.200217707,-0.057137041,55.43730524
42:53.0,660,647.76,0.000280471,-0.002956148,1,0.000271483,0.000167059,0.010517116,-0.195457034,-0.054653534,55.55896394
42:54.0,661,648.74,-1.65E-05,-0.003038692,1,0.002921836,0.00168488,0.005829026,-0.193880915,-0.053701099,55.68796195
42:55.0,662,649.74,5.99E-05,-0.002156708,1,0.048994421,0.027632826,0.002183735,-0.168667347,-0.036814336,55.81479739
42:56.0,663,650.72,2.40E-05,-0.003025338,1.000000001,0.15127299,0.10047334,0.011340562,-0.057795377,0.033792176,55.94156455
42:57.0,664,651.72,6.88E-06,-0.001705347,1.000000004,-0.123686875,-0.076527938,0.007154025,-0.144867481,-0.022195121,56.07268867
42:58.0,665,652.7,-3.73E-05,-0.003037822,0.999999928,0.003165449,0.006553137,0.000467285,-0.214282255,-0.068261247,56.19513083
42:59.0,666,653.68,8.85E-05,-0.002633975,0.999998298,-0.003460029,-0.003393628,0.008422446,-0.20653639,-0.063518503,56.3189868
43:00.0,667,654.68,0.000746425,-0.002362783,0.999977291,0.214919464,0.10361132,0.009751083,-0.091394531,0.002242321,56.44839538
43:01.0,668,655.66,0.005425069,0.005135797,0.999798645,0.78559378,0.479547107,-0.236374738,0.019039656,0.027739646,56.54205407
43:02.0,669,656.66,-0.011260107,-0.013112292,1.000351551,0.441152303,0.448039567,4.781877551,-0.156368373,0.327799471,58.18520206
43:03.0,670,657.64,-0.006478256,0.004589908,1.000648067,-1.403108051,-0.230243969,3.182097069,0.31267176,0.011802801,62.63749389
43:04.0,671,658.62,0.019824032,0.028482813,0.999761232,-0.003578398,0.457928874,14.92219792,-0.299256562,0.393511696,72.38324674
43:05.0,672,659.62,-0.036767813,0.009484444,1.000817931,0.968421749,0.387852123,13.92104519,0.550951498,0.381257753,84.12071403
43:06.0,673,660.6,0.030674519,-0.004736168,0.999474405,-0.521526976,0.356319691,7.759326645,0.329383325,-0.205423725,97.76963407
43:07.0,674,661.58,0.00158749,0.067754752,0.999336786,-3.008684953,0.070575372,1.272823635,1.683672009,-0.218667974,96.70349858
43:08.0,675,662.58,-4.21E-05,-0.042212776,0.996334167,1.281207017,-0.227845173,-3.234466805,-1.090971045,0.101998389,102.8707099
43:09.0,676,663.56,0.000873215,-0.003907968,1.000318479,0.001759855,-0.283885312,-23.63993758,-0.226077231,-0.196425298,84.34896695
43:10.0,677,664.56,0.005949125,-0.022158775,1.024166842,-10.71884759,-2.768921506,-10.85864299,-3.194923027,-1.049178235,59.38344143
43:11.0,678,665.54,0.081073313,-0.199604506,0.978576287,-5.723140908,-2.962155996,-8.164747564,-11.88327021,-5.100428589,50.20202128
43:12.0,679,666.52,0.103382853,-0.151170961,0.99393763,4.773375043,7.90198979,-0.598106534,-7.747722863,-4.328383839,46.15993703
43:13.0,680,667.52,0.026151339,-0.006139281,1.009790475,7.871306512,0.386368026,0.043247534,0.482149598,-1.852512363,46.80721138
43:14.0,681,668.5,0.024945118,0.041288605,0.98658804,-5.257216749,2.365598422,0.302458099,0.872714157,-1.227522662,47.03379327
43:15.0,682,669.48,-0.006131863,-0.015732301,1.012594688,-0.924718506,0.43716304,-0.970531992,-1.012017118,0.19634506,47.29615057
43:16.0,683,670.48,-0.039515172,0.03094766,0.990398883,0.046967209,-0.950901726,-9.855353921,1.662591573,1.926322338,40.82961276
43:17.0,684,671.46,-0.034046381,0.017876093,0.999879685,2.303235741,2.503669388,-13.85286217,1.313145222,2.293787135,29.2796664
43:18.0,685,672.46,-0.046513937,0.047932073,0.996288292,-0.319569627,-0.494738543,-16.71211474,2.405304941,2.391526645,13.78149326
43:19.0,686,673.44,-0.051573613,0.011204175,1.00092269,1.062977802,-1.717170183,-15.69550784,0.765591761,2.4910907,-1.400382369
43:20.0,687,674.42,-0.022990347,0.024036942,1.002403514,-0.155488662,0.238243956,-11.3502572,1.133086846,1.353275852,-15.24289976
43:21.0,688,675.42,-0.031343302,0.037277466,0.992044263,-3.933328751,-4.208168869,-6.104201788,1.300128766,1.048748889,-24.39296351
43:22.0,689,676.4,-0.031923846,-0.015067833,1.001968296,-0.090454624,1.302585135,-4.488767586,-1.049691397,2.365648302,-28.87199721
43:23.0,690,677.4,-0.000972861,-0.029978179,1.010577578,1.348818967,-2.190600202,-5.195536076,-1.395614755,-0.231112174,-34.02469684
43:24.0,691,678.38,0.006535613,0.016278886,1.005167944,-7.810564397,6.552614404,-0.32293488,-0.530601408,0.742964316,-36.25389768
43:25.0,692,679.36,-0.249749527,-0.227613911,0.941754032,-10.99870286,9.928056069,0.922467588,-14.59470602,15.59554214,-35.71955259
43:26.0,693,680.36,-0.290740794,-0.249049482,0.92543259,3.165154682,-0.938592619,1.010090531,-13.73296147,16.25006023,-34.72268426
43:27.0,694,681.34,-0.168484956,-0.128342124,0.984009544,5.62389602,-8.738063038,0.935583329,-6.782178546,8.348909271,-33.26166402
43:28.0,695,682.34,-0.126568891,-0.07833633,0.995104255,-2.366073033,3.367218354,0.49600271,-5.353324969,8.312015668,-32.99988458
43:29.0,696,683.32,-0.120179877,-0.089926061,0.989426621,2.231445429,-3.626709938,1.581252314,-4.848977366,6.32200161,-31.37094486
43:30.0,697,684.3,-0.070003043,-0.049994967,0.995904289,1.466496459,-1.344032078,-0.329444128,-2.753723313,4.03964475,-30.4412582
43:31.0,698,685.3,-0.045318916,0.033038213,1.004650071,2.188288304,2.30342195,-6.002689905,2.807276873,2.836521611,-34.61979195
43:32.0,699,686.28,-0.094344382,0.025527668,0.995687784,0.281179244,-0.973523709,1.122977262,1.16034751,5.092468604,-37.46204411
43:33.0,700,687.26,-0.054021674,-0.065039381,1.000874897,-4.623735717,1.042325177,-6.793566622,-4.229577542,1.871186723,-39.11319458
43:34.0,701,688.24,-0.139418631,-0.107127109,0.991532968,-1.817830663,0.755787212,3.119724459,-6.108190318,7.919199723,-35.78208017
43:35.0,702,689.22,-0.043525994,-0.156541884,0.98198251,-1.128138471,-8.423376207,-8.428422478,-9.165364229,2.95510677,-35.92337939
43:36.0,703,690.2,0.078742532,-0.115610783,0.990857586,3.072106204,4.095165422,1.258849208,-6.366236915,-4.016646639,-40.96838099
43:37.0,704,691.18,-0.079844481,-0.04314204,0.994782057,2.467634802,4.805538728,-8.135570547,-2.536763402,4.940864233,-40.38767497
43:38.0,705,692.16,-0.125364147,-0.025992542,0.992773684,7.342029934,-0.978076162,15.97867761,-0.309442638,6.691907763,-56.68302166
43:39.0,706,693.14,-0.082587889,0.121624244,0.991352866,-4.482972944,4.453164685,3.604129456,5.39666667,5.426460247,-22.10099139
43:40.0,707,694.12,-0.110048791,0.042888985,0.992680735,-4.750298958,2.964326392,44.38202893,2.877249489,5.817341712,-17.20454608
43:41.0,708,695.1,-0.140376668,-0.021774499,0.991271317,-8.294042686,-2.28335512,-2.439033354,-1.909827414,7.502297266,24.29915527
43:42.0,709,696.08,0.030823678,-0.104644726,0.986261413,-0.632279609,-1.484410709,3.634624887,-5.349529275,-0.21826165,-6.259465839
43:43.0,710,697.06,-0.14722918,-0.064637878,0.984626198,-4.739504698,0.158459855,35.11303279,-1.570360088,7.736748877,34.29861665
43:44.0,711,698.04,-0.043667748,0.007891499,1.012374383,5.861001989,-4.210589034,-8.331770015,1.734946576,1.662939091,36.71700113
43:45.0,712,699.02,-0.065302803,0.004252795,1.001839378,-2.254103665,3.603458098,2.337034163,-0.773259444,4.392275075,38.33593519
43:46.0,713,700,-0.087892002,-0.021259957,0.997423438,1.248374589,-1.383212187,-4.682910454,-1.179721188,4.877592272,33.52670034
43:47.0,714,700.98,-0.043956368,-0.004034663,0.994476078,-0.257160565,-1.570329406,-8.808713831,-0.729567532,2.360102503,31.36666856
43:48.0,715,701.96,-0.066807205,-0.043948481,1.000594653,-5.374164275,-5.343889802,14.10712042,-2.544991641,2.550768779,27.01845712
43:49.0,716,702.94,0.037322865,0.03783467,1.000866628,2.633570395,-1.919311621,-5.991055926,1.409232932,-2.167188762,32.86562707
43:50.0,717,703.68,0.002259656,-0.027752293,0.999289436,-5.602808469,5.789906017,4.637198907,-2.206535869,1.337549339,34.15811231
43:51.0,718,704.26,-0.072100392,-0.108551317,0.991702011,-0.093251418,0.353590922,0.515556235,-5.061515959,4.100862783,35.02934968
43:52.0,719,704.88,-0.068599219,-0.08151275,1.001945074,1.13843852,-0.966768472,10.3875667,-4.608489262,3.851175103,38.22847687
43:53.0,720,705.72,-0.061091879,-0.01820403,0.991051169,-0.522824044,1.504594971,3.512726408,-1.625748853,3.771464481,44.21378093
43:54.0,721,706.7,-0.109926308,-0.037882095,0.995292451,0.886338737,-1.383933921,-3.224539641,-2.431171952,5.509744793,45.61107857
43:55.0,722,707.68,-0.061777964,-0.032057251,0.997022415,0.169405717,-0.163966357,4.238864355,-1.803114401,3.799130883,44.65315841
43:56.0,723,708.66,-0.076418084,-0.02622032,0.999130875,-0.100896338,0.417133365,2.604093976,-0.863914956,4.709741334,56.07530006
43:57.0,724,709.64,-0.087487861,-0.011734996,0.994231663,-0.071510816,0.993337363,8.570754873,-0.175086602,5.235056199,66.47027752
43:58.0,725,710.62,-0.110496642,0.005295097,0.997810684,-0.353353253,0.491630692,11.23679263,1.381846256,6.673494222,82.60312504
43:59.0,726,711.6,-0.116662502,0.069350648,0.994621372,-6.335335478,-15.08781819,16.0416889,3.587897719,4.012167865,101.6618045
44:00.0,727,712.58,0.095335865,-0.065059721,0.992929105,-2.740992792,8.065076901,19.97128921,-3.543818966,-2.823019662,115.2134831
44:01.0,728,713.56,-0.003440953,-0.102451134,0.992162826,7.378693006,-2.043470234,16.15158426,-3.730318133,-0.059471462,134.5328952
44:02.0,729,714.54,0.008214665,-0.019240364,1.002952606,0.15270929,-0.548866239,7.92016343,-0.564785198,-0.122023798,149.1214605
44:03.0,730,715.52,-0.000156436,0.004048235,0.999588555,0.557497256,-0.467219499,0.261819894,-0.011476745,-0.104124761,149.0697605
44:04.0,731,716.5,-0.001207852,0.010426205,0.999767115,0.002567441,0.549029085,-0.295291219,0.355351375,0.140988862,149.4570341
44:05.0,732,717.48,0.007402117,0.011927896,1.002336558,0.292198205,0.829343374,-0.800434604,0.57908685,-0.462891638,149.6168651
44:06.0,733,718.46,-0.234215627,0.026589817,0.974391873,7.741721523,18.29592568,-1.877323458,3.013621994,16.30358965,148.1000199
44:07.0,734,719.44,-0.22206542,0.017781942,0.970221223,-12.13857503,-16.57671416,-1.735474711,-1.103893094,9.441267566,146.9949035
44:08.0,735,720.42,-0.03765452,-0.096581764,1.01520126,14.84341822,11.0414658,-0.278063309,-2.454470422,4.715946137,145.8456926
44:09.0,736,721.38,-0.273594704,0.138276783,0.956032338,2.353169937,1.58330496,-1.632117416,7.873684448,15.30973504,144.5034962
44:10.0,737,722.36,-0.188317981,0.068401834,0.954888128,-18.29723739,-21.7636939,0.765351388,0.836925432,7.02280484,143.2019504
44:11.0,738,723.34,0.065250923,-0.205022654,0.97057956,3.529687831,8.56624216,0.858880511,-10.20010806,-0.85196266,144.6212101
44:12.0,739,724.32,-0.075383983,-0.055562917,1.020888545,11.57502241,2.623893307,1.005417476,-1.020762479,4.552120463,145.128336
44:13.0,740,725.3,-0.036992026,-0.005086152,0.969993402,-7.218611011,-2.279502141,1.460390702,-2.049258245,1.776656017,146.643372
44:14.0,741,726.28,-0.096217577,-0.047708078,0.996728843,-0.330995757,1.727612597,0.217878573,-2.742473827,5.711654148,148.7960352
44:15.0,742,727.26,-0.083118596,-0.071396067,0.997448558,0.470686481,-0.83930709,-5.162679298,-4.066674561,4.397241234,146.1801511
44:16.0,743,728.24,-0.093507161,-0.023879206,1.001905498,1.814279396,0.469247981,-5.939700058,-1.333502192,5.34939156,140.7264336
44:17.0,744,728.96,-0.085540834,-0.004976836,1.000398465,0.710423291,-1.320736882,-0.449943975,-0.510257725,4.500680885,138.6215566
44:18.0,745,729.58,-0.064739439,-0.022316953,0.997992721,-2.383355272,-0.19336298,-2.285099734,-1.737924691,3.770562822,137.547796
44:19.0,746,730.54,-0.06759267,-0.040252447,0.99587481,1.480501943,-0.007221525,-2.491821297,-2.064059869,3.840912414,135.929492
44:20.0,747,731.52,-0.064293742,-0.019739216,0.998641502,0.340569596,0.041774631,-1.817776983,-1.158986595,3.662951447,133.716444
44:21.0,748,732.52,-0.065735054,-0.022328911,0.999309098,-0.306871242,0.501431656,-1.154392541,-1.422236105,3.846067484,132.4029588
44:22.0,749,733.5,-0.093231477,-0.060047834,0.994795895,-5.197593197,2.245546983,6.832112234,-3.566004458,4.752239393,133.0076807
44:23.0,750,734.48,-0.083833739,-0.089512558,0.995386497,-0.079266086,-1.905643563,1.299762886,-5.08027887,5.812569704,136.5051273
44:24.0,751,735.48,-0.08852025,0.021005687,0.997772229,7.669423842,4.451981921,-8.892189814,0.692940313,5.332364937,134.6056998
44:25.0,752,736.46,-0.111068448,-0.000998335,0.994789007,-5.163011464,-4.540338738,6.003585489,0.209400239,5.197777552,130.5041733
44:26.0,753,737.46,-0.039794428,-0.048292026,0.996711811,0.746458446,-3.284066084,13.38876041,-2.072856567,2.294204064,138.7674505
44:27.0,754,738.44,-0.027237466,-0.017256561,1.000202249,-0.749439606,0.405273147,25.39972568,-1.049518829,2.056681507,173.5643701
44:28.0,755,739.44,-0.055629229,-0.036057513,0.9998897,-0.129948157,1.729237618,-3.866798341,-2.09788151,3.533739283,178.2566687
44:29.0,756,740.42,-0.081570721,-0.029947922,0.99785673,1.662500118,1.023917238,-6.695818089,-1.487747974,4.730852676,172.6385136
44:30.0,757,741.4,-0.084769753,-0.020278972,1.005164051,4.411246885,4.908974199,-4.662327686,-0.56483333,5.541266461,167.0900667
44:31.0,758,742.4,-0.09775474,-0.013276938,0.997973876,-9.365076423,-1.292619022,-0.954840493,-2.701244155,5.236117148,164.1397724
44:32.0,759,743.38,-0.064934087,-0.071764196,1.033857763,2.762286888,-1.23765363,2.869922238,-3.269027207,3.578299809,165.4902982
44:33.0,760,744.36,-0.037086001,-0.013950723,0.960460251,-2.205779821,-3.088860989,5.203372125,-1.268419234,1.70892078,171.8686077
44:34.0,761,745.36,-0.087044821,-0.030610175,0.998976707,2.808920673,3.255305069,-1.766816642,-1.326723195,5.481867124,171.7484348
44:35.0,762,746.34,-0.090550647,-0.006055428,1.016759657,-1.072660068,-3.606814869,-0.368579368,-0.739972183,4.399649744,170.9108124
44:36.0,763,747.34,-0.055782334,-0.022968127,1.005895775,-0.287355965,0.981328068,0.056147125,-1.376068505,3.52885128,170.8568246
44:37.0,764,748.32,-0.075614887,-0.023448917,1.003898513,0.994080474,-0.935042424,2.145163623,-1.136622806,4.141021279,172.4263651
44:38.0,765,749.3,0.002188997,0.011417647,0.98077101,-1.636480511,1.592833254,4.137474058,0.182461653,0.26506067,175.3431907
44:39.0,766,750.3,-0.077336405,-0.033467519,0.987237467,-2.668486457,4.357328299,1.731718769,-2.276169301,5.022662615,179.699126
44:40.0,767,751.28,-0.102691285,-0.052826731,0.995199186,1.590419348,-2.914392992,-1.308611743,-2.66718333,5.154964412,179.6675141
44:41.0,768,752.26,-0.061534575,-0.025450998,1.000980617,0.618690162,1.68148329,-1.824123052,-1.486096053,3.830985111,178.7159882
44:42.0,769,753.26,-0.105076467,-0.047139279,0.997935635,-5.063281216,2.585460866,1.014394857,-2.775670715,5.307802365,176.73609
44:43.0,770,754.24,-0.107276816,-0.124923613,0.996131334,-0.277397495,-4.730106696,2.557675084,-7.33658238,6.920513529,-150.9304162
44:44.0,771,755.24,-0.115750884,-0.012084654,0.993002527,7.304185083,4.742528844,-9.921538951,-0.995926289,7.076866488,201.7350234
44:45.0,772,756.22,-0.153135571,0.04797596,0.990125537,-1.078514847,-1.856034438,-1.104115057,2.436436903,8.271017863,173.1311338
44:46.0,773,757.2,-0.037074454,-0.10546775,0.989026611,-6.3368311,-8.965594856,-5.169899393,-5.442238298,1.454883142,168.9254223
44:47.0,774,758.2,0.005607294,-0.038824904,1.002688506,0.454225816,3.535738307,4.934713561,-2.492790813,0.715348448,171.5670195
44:48.0,775,759.18,-0.052573396,-0.05909515,1.006458612,-0.233635185,2.318328574,-2.206433738,-2.497800761,3.364425964,171.410042
44:49.0,776,760.18,-0.063407083,-0.01770035,0.999897362,4.644477279,-3.104851863,-4.30193226,-0.45959725,3.040631455,168.7105732
44:50.0,777,761.16,-0.079679429,0.044450861,0.995912846,-12.50748658,-2.972619756,2.728115032,0.710063933,4.453953357,169.0768987
44:51.0,778,762.14,-0.028738783,-0.062878233,0.99414134,4.663092488,2.880371522,-0.909114222,-2.436317515,2.460714013,168.7603856
44:52.0,779,763.14,-0.030630797,-0.005931354,0.996971465,1.409170234,0.490924643,2.59101375,-1.154902612,2.03392371,168.030948
44:53.0,780,764.12,-0.039451228,-0.082250857,0.999703545,-10.20277682,1.139126515,-4.076252271,-4.211240501,2.957269938,169.486193
44:54.0,781,765.1,-0.02074462,-0.176216225,0.984534615,8.591104778,-2.34415937,-0.860911785,-8.131940347,0.45052537,163.6491265
44:55.0,782,766.1,-0.043361279,-0.011586669,1.003083896,5.799124688,5.436628377,-2.324016795,-1.409969122,2.46007602,163.3706404
44:56.0,783,767.08,-0.065401226,0.022955988,0.99642499,-6.716735805,-4.683349795,0.304384912,0.089965533,3.118864957,162.6857408
44:57.0,784,768.08,-0.070886948,-0.032918323,0.996738669,3.400717622,0.02421878,-4.832546041,-1.709160081,3.162425663,160.6159576
44:58.0,785,769.06,-0.139831217,0.043297131,0.994731258,-1.319014868,3.382379318,8.010409801,2.376131676,7.77517599,163.6008917
44:59.0,786,770.04,-0.032060247,-0.008591681,0.995329932,-3.135416227,-1.038245285,-0.251115372,-0.80310467,1.903498077,164.8813665
45:00.0,787,771.02,-0.07359747,-0.046603391,0.998739961,-0.621143219,-8.038224261,-2.704942483,-1.698133878,3.973484181,163.0425429
45:01.0,788,772,-0.017675177,-0.066899555,0.996618472,3.618544183,9.676769091,-4.285514815,-3.404186592,2.155992627,160.0579768
45:02.0,789,772.98,-0.106921516,-0.041961167,0.997887995,-4.015195511,-0.947806038,8.696067814,-2.537373918,5.446592561,159.9776491
45:03.0,790,773.96,-0.1000709,-0.140860235,0.983505712,7.97590542,-5.35820903,-6.746999607,-6.459451768,4.513068918,163.138742
45:04.0,791,774.94,-0.047731275,0.079146172,0.999496937,3.355854448,1.193157315,-2.569267091,3.286369607,3.027135431,160.2833976
45:05.0,792,775.92,-0.061118871,0.017836218,1.000395086,-4.55117221,0.302220306,-0.398703425,0.054973664,3.552297064,158.6267394
45:06.0,793,776.9,-0.056802318,-0.020552458,0.998335716,1.750856004,1.352289515,-0.534883941,-0.708281524,3.423521758,158.031891
45:07.0,794,777.88,-0.081923638,0.006465269,0.997358247,1.961871195,0.776797106,-4.610680796,0.094743108,4.697487789,159.1309405
45:08.0,795,778.86,-0.106914991,0.064174327,0.998000724,-1.71424559,-2.233591521,1.431503474,3.107534871,5.448313938,156.4631941
45:09.0,796,779.84,-0.062392462,-0.021003905,0.998759577,2.549649966,1.789525217,0.033368347,0.185727699,4.132426046,156.7493393
45:10.0,797,780.82,-0.077138488,-0.009786288,0.970674784,-13.77443487,7.145456853,-4.1951592,-2.678700045,5.555936909,155.149189
45:11.0,798,781.8,-0.142015654,-0.164009667,0.977312261,10.68175702,-2.225633093,0.174509068,-8.556349008,7.271338456,151.5677634
45:12.0,799,782.78,-0.09880541,-0.011329788,1.004657341,5.216494351,-5.39024793,0.043159925,0.364292054,4.614289513,152.5346591
45:13.0,800,783.76,-0.054169672,-0.008116473,1.005565417,-6.908440868,1.841322422,-1.704515925,-1.986621792,3.696995849,151.04691
45:14.0,801,784.74,-0.06621181,-0.079823328,0.991449017,1.665580113,-0.834936399,-0.648367678,-4.128721751,3.70077817,150.0313389
45:15.0,802,785.72,-0.047043694,-0.020502145,0.99724741,2.358595689,1.35564174,0.137474323,-0.93175071,2.939079948,149.2885589
45:16.0,803,786.7,-0.091265151,0.021606479,0.999956976,-2.6567636,0.84974359,-1.919045393,1.683143936,4.921188912,150.1865722
45:17.0,804,787.68,-0.09773948,-0.090767305,0.994158857,-4.497012239,-4.402916298,5.588040397,-6.142724585,5.99734008,146.0135412
45:18.0,805,788.64,-0.072500479,-0.068112908,0.988883569,-2.153222982,-3.417800882,28.4213891,-4.107518258,4.380086611,42.04565574
45:19.0,806,789.62,-0.039849879,-0.075263387,1.002128498,-0.770545779,-2.805255298,-29.0920895,-4.480609746,1.585789987,13.03700265
45:20.0,807,790.6,0.007660079,-0.050798763,1.000583934,4.942596958,4.746362446,-45.7251793,-2.225076767,-0.07089717,131.1332437
45:21.0,808,791.58,-0.048637095,0.016818517,0.989265269,1.331777446,3.265916423,-13.23673553,0.839326482,2.654924931,101.8672839
45:22.0,809,792.56,-0.080623072,-0.06181674,0.99661692,-1.599316251,-1.615779978,-57.37435316,-4.475248028,3.262291879,68.00877623
45:23.0,810,793.44,-0.01150963,-0.075464189,0.995410735,0.530003654,2.45471672,-44.86960587,-4.238429736,0.301492358,19.92342052
45:24.0,811,794.36,-0.071845687,-0.070408928,1.00387276,3.921274402,2.121879443,-4.057210411,-3.275634116,4.091871203,4.188025342
45:25.0,812,795.34,-0.096720667,0.005147005,1.01407913,6.286590154,7.372573881,0.295194188,1.114762831,6.536826037,3.43531818
45:26.0,813,796.32,-0.106404392,0.031045865,0.986798421,-11.07056846,-15.41864649,6.513971901,-0.60303996,3.049847629,6.225124381
45:27.0,814,797.3,0.045629686,-0.093650928,1.025129242,4.165231785,7.844938848,6.412394228,-4.190053188,-0.215246794,12.01878087
45:28.0,815,798.28,-0.012061427,-0.036948599,0.996210232,0.473253535,-0.039604647,2.144041819,-2.083825503,0.696102044,17.02892628
45:29.0,816,799.26,-0.046184232,-0.012234931,1.002510383,-0.425423352,2.849028023,44.29473536,-0.386904667,3.11792259,37.70477637
45:30.0,817,800.24,-0.040867599,0.011554961,1.000934916,-3.143580838,-0.450016957,49.15744298,0.555028108,2.47119246,84.22979049
45:31.0,818,801.22,-0.047882433,-0.013850573,1.000896583,-3.737281023,-0.006664905,49.70433633,-0.708495881,3.143487718,135.3130278
45:32.0,819,802.2,-0.065829167,-0.073760918,0.998660185,-4.062872066,1.193417179,3.747895819,-4.402257232,4.152159999,158.2949582
45:33.0,820,803.18,-0.009599944,-0.066036658,0.994790294,6.556651176,0.422209023,7.348005761,-2.565646201,1.017694075,162.5812934
45:34.0,821,804.16,-0.036045353,0.021634349,1.003158952,4.1478068,3.677495776,-10.18312998,0.325422271,2.386396584,166.0508174
45:35.0,822,805.14,-0.100553854,0.050735346,1.001165467,0.398294535,-0.915132571,-0.584560578,2.580550891,4.956560216,156.436981
45:36.0,823,806.12,-0.07262728,0.047986969,1.002170342,-7.402556422,-2.455985373,3.054544484,2.310762089,4.052907865,157.654478
45:37.0,824,807.1,-0.070455368,0.019138459,0.995122344,4.926500473,0.688840059,-6.635071544,1.829051758,4.329599319,154.9854266
45:38.0,825,808.08,-0.081719968,0.092874701,0.999097301,8.470824143,5.170462856,1.694405179,5.228510602,4.78037103,152.9030829
45:39.0,826,809.06,-0.126202025,0.089107523,0.98540588,-10.76223564,-1.28442886,-3.583706115,3.370655335,6.843895405,154.6299147
45:40.0,827,810.04,-0.094195902,-0.160124294,0.975839476,-15.28675698,-5.088790373,-0.866161931,-9.670226203,5.444488503,151.1775296
45:41.0,828,811.02,0.023331881,-0.368764716,0.931656335,2.042413026,-3.28573694,-5.418374059,-19.57700327,-1.249820193,152.5951413
45:42.0,829,811.98,0.020160248,-0.240794907,0.971381721,10.52630684,5.302781262,-3.783405804,-12.50188994,-0.29494799,150.9838881
45:43.0,830,812.96,-0.048607817,-0.092960521,1.000911903,1.272995689,1.881012392,0.519496316,-6.048309788,2.505882651,148.1280057
45:44.0,831,813.94,-0.069037153,-0.099714687,0.995356596,0.43279154,1.614429416,-2.52546566,-6.249666929,3.984230666,147.8879718
45:45.0,832,814.92,-0.067910968,-0.044535735,0.99100601,5.182362354,-3.709953197,-1.195215305,-2.065049821,3.006012987,145.5563269
45:46.0,833,815.9,-0.060746312,0.09145115,0.994155008,9.191129373,2.725104557,-4.631575419,5.342739807,3.581334406,143.1312613
45:47.0,834,816.88,-0.100157915,0.281180466,0.973487114,4.458682127,1.772913906,6.339929988,15.33639435,5.2669559,147.1705934
45:48.0,835,817.86,-0.10486599,0.205270825,0.965498732,-13.27621563,1.420911921,-4.623328929,10.17582227,6.734332835,146.6759901
45:49.0,836,818.84,-0.107045104,-0.112482456,0.981579679,-16.6492684,1.086204241,3.174972886,-7.045010489,5.228331925,146.29453
45:50.0,837,819.82,-0.014326781,-0.140976797,0.98107692,17.54469595,-7.636144469,-9.366681447,-6.151972786,0.284221423,146.8272956
45:51.0,838,820.8,0.003379807,-0.017810483,1.000409977,-0.860836871,2.360291769,31.77910318,-1.025981259,0.487903161,144.0997752
45:52.0,839,821.78,-0.073424418,0.014785432,1.004494785,5.812068117,3.313109765,-8.218655844,0.081783841,4.488328743,169.4011258
45:53.0,840,822.76,-0.13205552,0.170450998,0.987143933,6.645083684,0.35356645,2.093027324,10.386598,7.303426589,165.7308578
45:54.0,841,823.74,-0.109083775,0.124251388,0.964072725,-21.77514992,-2.799439463,-3.90120148,4.813915721,5.933012699,164.2545755
45:55.0,842,824.72,-0.087877544,-0.23919618,0.968143724,0.175205832,0.720427996,-4.745344155,-12.39487594,5.207278107,160.6457789
45:56.0,843,825.7,-0.119387947,-0.03954535,1.003945648,11.4058142,6.701865458,2.530899833,-1.275228576,7.409975665,155.3767979
45:57.0,844,826.68,-0.14000083,-0.025840863,0.995812339,-10.2911943,-8.683466343,11.60610337,-0.932465935,6.935496151,162.6032741
45:58.0,845,827.66,-0.03711764,-0.129566502,0.996148365,1.463707368,0.556281284,-1.567816738,-7.918079665,2.516401496,166.2992273
45:59.0,846,828.64,-0.03466547,-0.215163156,0.987785144,-11.49130635,-0.121991223,-3.519970138,-14.16242227,2.136266158,162.9345798
46:00.0,847,829.62,-0.033592776,-0.260201711,0.94993823,15.72541473,2.94170652,-4.561827979,-13.16637523,2.010924394,159.2880549
46:01.0,848,830.6,-0.060658898,0.018921607,0.994611539,1.616919707,-4.090713497,2.648351255,1.644957281,3.095684758,161.025997
46:02.0,849,831.56,-0.020412504,-0.0403733,1.014787132,-9.423881066,-0.744973761,-4.484249397,-4.638365182,1.268086645,156.6224877
46:03.0,850,832.54,-0.021810408,-0.135484365,0.984621197,-0.240113375,3.20791761,-0.88436672,-7.703562616,2.121670824,154.4302222
46:04.0,851,833.52,-0.079582675,-0.104263207,0.987110791,4.646687522,1.491284952,1.111427785,-5.152551821,4.728183497,155.232211
46:05.0,852,834.5,-0.110140994,-0.03676904,1.00089371,4.151457506,0.609454698,-4.755175592,-2.653057524,5.601141467,154.1856079
46:06.0,853,835.5,-0.114955207,0.174631255,0.981945136,8.135730443,2.963791405,1.087422798,9.572305912,6.455861139,153.21215
46:07.0,854,836.48,-0.12436792,0.136496576,0.981404612,-7.077122286,-0.905429281,-1.232753757,6.650025581,6.808458838,153.7192895
46:08.0,855,837.46,-0.121617782,0.000911723,0.988887683,-6.82030723,-1.537475332,-1.538218347,-0.297092628,7.067055996,151.1901927
46:09.0,856,838.46,-0.073544262,-0.110899916,0.988564508,-2.453744387,-2.227426909,-1.462883606,-5.383663916,4.500081167,149.212141
46:10.0,857,839.44,-0.048938943,-0.08445987,0.995721956,10.44619974,1.305100526,0.306253172,-2.990489625,2.68586723,142.8109153
46:11.0,858,840.44,-0.014699244,0.075088155,1.006326126,-1.143146747,4.122665152,36.49959994,3.285008489,1.178968279,62.18909866
46:12.0,859,841.42,-0.073131927,0.038811251,1.001466666,-1.010905036,1.028698784,-2.997166684,1.69936923,4.438310327,-162.5144762
46:13.0,860,842.4,-0.081589826,0.015737646,0.992016918,-0.793166934,-0.990656739,-7.41833757,0.812979699,4.283128216,-26.55295458
46:14.0,861,843.4,-0.125890212,-0.025821719,0.993711553,-3.112697367,2.049746172,3.874504862,-1.242468074,6.297389696,-84.88570606
46:15.0,862,844.38,-0.053221253,-0.113908273,0.991635991,-2.826732145,-5.309623212,-1.216256701,-6.481230574,2.571386204,-164.4596097
46:16.0,863,845.36,-0.03954815,-0.077879644,0.994434734,5.236848601,3.021803013,-9.627017682,-3.620625281,2.532300455,8.191223467
46:17.0,864,846.36,-0.067394189,-0.001909527,0.999241928,3.067882304,2.07119367,0.054548304,0.178886541,3.271441502,171.1324514
46:18.0,865,847.34,-0.096714502,-0.006930834,1.001624834,-0.478593859,-1.646189051,0.120840404,-0.652157661,5.589005494,195.1960758
46:19.0,866,848.34,-0.069785238,0.01296643,0.982801301,0.352451475,1.553401388,30.62332921,0.986029186,4.374777115,-177.4911273
46:20.0,867,849.32,-0.088039781,-0.039264877,0.994796561,-8.164412128,-5.040585146,-23.03249706,-3.949953864,4.118282608,-163.86513
46:21.0,868,850.3,-0.0025055,-0.109588766,1.034008991,9.616872218,10.47050617,1.831918218,-4.170337958,2.502272174,-167.9676604
46:22.0,869,851.3,-0.094957449,0.052145587,0.999641651,5.898092776,5.340634227,1.118057252,3.589222277,5.898303459,-165.5818886
46:23.0,870,852.28,-0.09776887,0.068880841,0.977551854,-4.239612699,-5.869637998,-1.007303012,1.96120675,4.275103323,-165.0891789
46:24.0,871,853.26,-0.092816932,0.046721639,0.998580907,2.228500096,4.577750041,-0.350729519,3.15571726,6.235116773,-166.598856
46:25.0,872,854.26,-0.148163781,0.055276739,0.990841538,-4.60421574,1.002003132,-2.023584315,2.672417461,8.477886725,-168.655502
46:26.0,873,855.24,-0.17228412,-0.049009119,0.985095656,-5.310579241,-0.696653986,-1.459103045,-3.197525023,9.591561319,-169.3973859
46:27.0,874,856.24,-0.09953578,-0.094915219,0.990810703,3.442544399,-5.523099892,-2.953941551,-4.324897934,5.129009716,-171.8982348
46:28.0,875,857.22,-0.040004633,-0.00233423,1.010464805,6.28317038,-1.880208607,-2.126675365,1.491469055,2.294532029,-172.235859
46:29.0,876,858.2,0.030367547,-0.008464926,0.994817126,-7.476884547,-2.456046844,8.650642204,-0.997385729,-1.393932126,-173.4981445
46:30.0,877,859.2,0.011031731,-0.056982572,0.988111889,2.410440353,3.840159944,-9.921759113,-3.556202478,0.683660046,-193.4434599
46:31.0,878,860.18,-0.025056492,-0.01759719,0.999749525,0.131027266,0.564014657,-4.856000071,-0.947884107,1.073162419,195.7990108
46:32.0,879,861.16,-0.039954052,-0.072170339,1.005298504,-4.142358848,-2.067775613,6.345710079,-4.037865922,1.226133782,195.8962614
46:33.0,880,862.14,0.002482856,-0.234606125,0.983480337,-8.625348494,-1.205033307,2.646162744,-14.6593364,0.201179542,-198.081811
46:34.0,881,863.12,-0.024604566,-0.22482198,0.961551468,12.29751697,3.897203381,-1.663361288,-10.89891021,1.991456182,-177.650713
46:35.0,882,864.1,-0.062849447,-0.037121018,0.99982341,5.085157176,0.296639099,-3.247604284,-2.228613768,3.227343798,-176.0968108
46:36.0,883,865.08,-0.105346192,0.059171641,0.981909031,3.746114007,4.345890938,25.97689864,3.650643204,5.535182652,-164.9883844
46:37.0,884,866.06,-0.142163632,0.080228625,0.990520454,-7.571818478,-2.491001684,-1.01866449,3.162275386,8.159154514,-162.4841131
46:38.0,885,867.04,-0.048321512,-5.38E-05,0.996048183,-3.171141474,0.283509144,-4.951158061,-0.439537605,2.754684504,-164.7086548
46:39.0,886,868.02,-0.095978415,-0.04056885,0.979431534,1.616118888,-3.197106569,6.419064593,-1.56265091,4.936100104,-161.1568387
46:40.0,887,869,-0.107124686,0.034481074,0.977108926,2.244227627,1.387724594,2.780050892,2.489967666,6.369314125,-156.1429238
46:41.0,888,869.96,-0.133973218,0.038231407,1.016393217,1.379145716,9.895103685,-4.013793993,2.31586248,9.388201977,-156.4751601
46:42.0,889,870.94,-0.088874654,0.0147926,1.016161286,-1.615001443,-1.389857915,-0.564580624,0.532527533,4.816399345,-158.0527207
46:43.0,890,871.92,-0.061033966,-0.020717801,1.007459105,-0.300048769,0.249754946,-0.492366346,-1.138743739,3.776251524,-158.9967615
46:44.0,891,872.9,-0.081261169,-0.023205577,0.999579061,2.730377278,3.435611953,-0.188336605,-0.724185625,5.408325579,-158.9589267
46:45.0,892,873.88,-0.084074963,-0.009841072,0.997034226,-0.879406552,-0.393246895,-0.36034868,-0.76783984,4.70812359,-158.9202358
46:46.0,893,874.86,-0.080582553,-0.014830229,0.98841588,-2.937041828,-5.301235202,0.529927504,-1.276122832,3.554245684,-159.3312887
46:47.0,894,875.84,-0.075758326,-0.023227816,0.999419546,0.840982165,2.07830588,-0.938145219,-1.035168567,4.720042478,-159.418052
46:48.0,895,876.82,-0.071849496,-0.031005127,0.973403505,-1.753003554,-9.422345858,1.657016613,-2.23361991,2.470915698,-158.9468276
46:49.0,896,877.8,-0.006203294,-0.180193684,0.999890948,-9.832129646,4.497516906,-1.656973506,-11.66577937,1.473185578,-157.6189133
46:50.0,897,878.78,-0.063161367,-0.131547216,0.965351473,7.656075321,-5.665723661,2.623724073,-5.926064818,1.496173813,-156.8495187
46:51.0,898,879.76,-0.089990692,-0.025794131,1.007978829,-4.002156718,9.213684978,-1.304838746,-2.635993429,6.684076276,-155.4613524
46:52.0,899,880.74,-0.176807812,-0.13238151,0.97897356,-3.04888673,-6.046840808,-0.015834947,-8.001283493,9.070684998,-157.1341473
46:53.0,900,881.72,-0.113448454,0.003192172,1.001246154,16.52707627,4.662401496,-4.77864144,2.606833877,7.767593202,-157.5574443
46:54.0,901,882.7,-0.141725288,0.138652632,0.998614461,1.146234595,0.978932554,-6.063922417,7.347976194,8.183681155,-162.9874357
46:55.0,902,883.68,-0.08455992,0.028935836,1.008990484,-6.952832373,1.635676304,4.244711035,0.683421244,5.271228786,-163.2629045
46:56.0,903,884.66,0.048025677,0.03050612,0.971724163,-0.770026025,-13.00482108,-5.719456271,0.814329699,-4.682698707,-158.6860683
46:57.0,904,885.64,0.076424669,-0.08382539,0.995105049,-4.219281955,6.903097497,-3.904748283,-3.443334911,-2.501067766,-163.8377806
46:58.0,905,886.62,-0.012153787,0.040447437,1.009482218,11.6618665,2.616889514,6.107931188,3.588007657,0.938409804,-161.325405
46:59.0,906,887.58,-0.065537235,0.108105255,0.996698187,-3.790858202,-0.053243364,0.725850439,5.21042319,3.174873048,-160.112649
47:00.0,907,888.54,-0.065643994,0.027086835,0.995846727,-2.8014451,4.307151033,-1.981970979,1.392942755,4.125419965,-160.9292063
47:01.0,908,889.52,-0.145889561,-0.003127545,0.994492286,0.811803534,1.662401835,-1.754378047,0.292676446,8.321605408,-163.0776076
47:02.0,909,890.52,-0.136632347,0.004244257,0.995476441,-0.443312185,-5.500508204,-0.695858718,0.126246599,6.806788388,-164.0408398
47:03.0,910,891.5,-0.017743744,-0.178158165,0.986287608,-10.67053201,-2.957620019,-5.472742555,-10.02379929,1.666037509,-166.1140397
47:04.0,911,892.48,0.034381929,-0.213012347,0.973551643,2.529634396,-2.480760815,-2.738833798,-11.73584446,-2.378599808,-168.4544846
47:05.0,912,893.46,0.019221618,-0.142165921,0.986475257,4.944382691,4.284067061,0.893660433,-8.139366085,-0.354075667,-169.455585
47:06.0,913,894.44,-0.116712664,-0.068452908,0.998012543,0.358440435,7.059321803,6.647810373,-4.663035953,6.20608307,-166.2380054
47:07.0,914,895.42,-0.127471,-0.038771687,0.98707339,5.922169686,-2.877519188,4.291046943,-0.97236062,7.197106131,-161.5175719
47:08.0,915,896.4,-0.077150869,0.021443648,1.001214966,-7.453415735,-3.486640217,-8.899961334,-0.754915963,5.252317901,-162.4588594
47:09.0,916,897.38,-0.0347175,0.047070171,0.996972588,8.275355223,7.60242836,-5.582366738,2.495635355,1.446909423,-172.0292378
47:10.0,917,898.36,-0.145364391,-0.06123419,0.993196841,-2.275039151,3.992089249,-1.894646709,-5.972117868,8.381776206,-169.7412333
47:11.0,918,899.34,-0.143102692,0.002979765,0.994868057,14.27645811,-7.333266788,0.791681045,2.892205957,7.220172719,-173.394761
47:12.0,919,900.32,-0.100740321,0.227048633,0.982995651,2.92265824,-2.56577913,1.320358271,12.97176724,4.982879204,-171.7179122
47:13.0,920,901.3,-0.062968432,0.124741272,0.979343817,-14.11814454,2.30985415,-1.130198064,4.851929551,4.485501786,-173.7007872
47:14.0,921,902.3,-0.12936182,-0.188980555,0.95790233,-17.21315444,2.223134494,-1.069032612,-12.48571488,7.752808806,-174.4965193
47:15.0,922,903.28,-0.08238232,-0.321319792,0.948817442,14.49157845,-2.084421787,-4.378549049,-15.01948668,4.517759174,-176.5418376
47:16.0,923,904.28,-0.058349065,-0.024070981,1.015157648,14.2598227,1.194661611,0.273968789,0.09843772,3.602620045,-178.1719444
47:17.0,924,905.26,-0.069863274,-0.030082376,0.998364006,-16.28963204,-5.31514103,2.755676439,-2.447230879,3.111380287,-178.3640434
47:18.0,925,906.24,0.008651261,-0.134659789,0.999941196,0.076510843,2.96384208,-1.15306859,-7.810954347,0.617561408,-175.5176356
47:19.0,926,907.24,-0.02157848,-0.205833755,0.984763729,-7.954052526,-6.108196002,-2.073156591,-13.49178424,-0.118396816,-172.3397829
47:20.0,927,908.22,0.194081602,-0.207303401,0.942078301,3.486498077,-12.95762251,-6.813082081,-12.04497944,-12.75478195,80.40256578
47:21.0,928,909.22,0.209854975,-0.170827674,0.95595923,-3.445648222,3.946529941,-0.825661511,-10.84668724,-11.44686978,198.5458065
47:22.0,929,910.2,0.079589849,-0.343427751,0.953212708,-2.722416338,0.478170512,-3.118498088,-19.8225097,-2.670853081,-207.5530605
47:23.0,930,911.18,0.134281905,-0.330114475,0.936306238,-3.48125832,8.757649498,9.100659816,-19.71866161,-6.963262014,-145.2604007
47:24.0,931,912.18,0.131972126,-0.280816005,0.937957956,5.584422365,-0.17654367,-7.195243848,-15.4953497,-10.01848113,222.7528851
47:25.0,932,913.16,0.075319985,-0.254189469,0.954844747,7.483952144,-5.109548719,-9.815633062,-15.59910584,-4.703830347,-40.57119211
47:26.0,933,914.16,-0.048244926,0.00983152,1.031657097,31.35105165,33.9445888,3.164922756,5.421656894,9.067839259,165.9916982
47:27.0,934,915.14,-0.50992203,0.474672915,0.733931087,-0.302732021,-6.301816913,3.907400606,28.87198589,25.29931075,176.3609198
47:28.0,935,916.12,-0.364208963,0.374956837,0.872070557,-2.313602804,-2.544607394,0.048384739,22.01887716,20.43634292,178.0005726
47:29.0,936,917.12,-0.086765374,0.136228859,0.946229535,-28.01020815,-24.66924531,0.493149175,3.319145307,3.346647655,176.2826873
47:30.0,937,918.1,0.008424407,-0.141506766,0.978096028,1.389920231,9.62135632,-7.0259952,-6.10153708,2.001026925,174.1512408
47:31.0,938,919.08,-0.082344522,-0.03432485,1.038069803,3.764162351,-2.134113609,0.977558879,-0.806061667,4.052142776,171.4839149
47:32.0,939,920.08,-0.016850433,-0.093170444,0.978236147,-0.798930501,-1.612704676,0.231335944,-5.489982089,0.87843511,172.8377848
47:33.0,940,921.06,-0.113483243,-0.012772261,0.975623201,2.087415659,-2.487608882,-0.164862199,-0.415385328,5.970735432,172.1730472
47:34.0,941,922.06,-0.033753993,0.02697916,0.999433216,-1.160279398,-6.300340775,1.827413305,1.057716374,0.941724795,174.1950713
47:35.0,942,923.04,0.026594049,-0.064367272,0.984563592,-4.461215609,0.947411649,-2.11966047,-4.279471786,-0.87635509,173.7915636
47:36.0,943,924.02,-0.100930425,-0.098807948,1.001762591,5.576674378,15.83683819,-0.351143402,-4.25626663,8.597631934,172.4783757
47:37.0,944,925.02,-0.151092135,0.000726218,0.996058527,0.611969883,-10.95178828,-1.356376647,-0.180049755,6.028266458,172.2793611
