Timestamp,AccX,AccY,AccZ,AsX,AsY,AsZ,HX,HY,HZ,AngX,AngY,AngZ
2024-06-18 04:31:33.000,0.2250861996386197,-0.08993896425195877,-0.043789524340335825,-8.180172179649727,-10.453224593577598,0.25028814302685,-13.726347893141151,7.964100912698076,0.4946146817102065,-5.223397196527628,-12.867530957696525,29.44125105859876
2024-06-18 04:31:33.100,0.3072865048545523,-0.1162383689649763,-0.0859439973239588,-8.109223899240156,-9.07200176313581,0.21209382709573973,-21.42542040093749,19.000702655425304,12.02146905579272,-8.694405627811705,-28.227300002096985,18.446075551478742
2024-06-18 04:31:33.200,0.3723082135900256,-0.13912163849735182,-0.11992245189352763,-8.024910084780007,-7.579909800969678,0.17150980612917097,-18.841286462541156,15.435862346733822,7.584039112162635,-10.13053873524003,-26.63873180443815,21.9802923447902
2024-06-18 04:31:33.300,0.4296392460410525,-0.15576169951932228,-0.152830083749216,-7.926888734528134,-6.066169975722525,0.12946614155882366,-19.6503259841562,16.791246029306258,10.64802432260108,-12.488767732253276,-30.707052128207433,20.545940233301476
2024-06-18 04:31:33.400,0.49160502079813545,-0.18481957466898638,-0.18581118634909594,-7.817718185818541,-3.881283582782804,0.06812288311475953,-18.356518259976127,14.913577634611451,4.072494128730801,-14.651557310109931,-31.072031565516056,22.25045210541373
2024-06-18 04:31:33.500,0.540527828097003,-0.22219004151278107,-0.20966681078933086,-7.695706056188934,-1.1388165080777157,-0.00867985794253192,-18.150412698903402,13.318949741654468,-5.984942830595198,-17.09355801474055,-33.73817473582175,21.583243977705383
2024-06-18 04:31:33.600,0.5806855667703276,-0.24583483311697582,-0.22922474792689554,-7.010913835557068,1.9222223709035502,-0.13356628308841736,-19.111489442422517,12.732835345681641,-6.87174223320799,-18.19989058006649,-33.208166775142544,22.596399734403672
2024-06-18 04:31:33.700,0.6063330135562254,-0.2562529389657649,-0.24038354896414943,-5.706472798285016,5.390694263841499,-0.3126698311620575,-18.997684423374544,12.88674357153469,-7.278954524906154,-18.90272592703382,-33.90796255938866,21.83277925052819
2024-06-18 04:31:33.800,0.6028761492005822,-0.2611563387376548,-0.24055086527936165,-4.037790763914829,9.32335063516919,-0.528694623743476,-18.174405382916134,11.230499291174526,-7.662825026013669,-18.876684378551293,-32.45695495104604,22.26344688428019
2024-06-18 04:31:33.900,0.5659238807859883,-0.2552476648994475,-0.22805285053081584,-1.8442580493453542,13.704391171201637,-0.792340596893022,-19.075901907044067,11.915359242004596,-7.559205314454128,-18.579782884536254,-31.76965946672891,21.39534237020203
2024-06-18 04:31:34.000,0.5400960858716971,-0.2533991746097688,-0.21557434899316125,0.5594304499255875,17.75613606137131,-1.0902787158592688,-19.087964141808595,11.32967752972461,-7.862136481024048,-17.78712766457936,-29.585472444823726,21.53782693767746
2024-06-18 04:31:34.100,0.5231198304011976,-0.25630840758624646,-0.20254994959301187,3.163397659304555,21.409545899021584,-1.422666102393248,-19.24600840622554,12.452579729176584,-7.706929287278013,-16.882343788099313,-28.12963136369271,20.6914828902496
2024-06-18 04:31:34.200,0.4860106715853786,-0.2521603415936459,-0.1800119475514159,6.2726163265608275,25.03466761951273,-1.80664988991397,-18.961607695678147,11.951252947569888,-8.223172946227422,-15.631256823703202,-25.433265428810774,20.68663691834026
2024-06-18 04:31:34.300,0.4368132587217533,-0.2440681589927474,-0.15019889936835318,9.83188657915628,28.411166152905256,-2.240834935706331,-19.812468636355135,12.782777270398528,-8.826990499656791,-14.316450852914697,-23.324111456518597,19.858174258787436
2024-06-18 04:31:34.400,0.3895742297978333,-0.23302233961271415,-0.12341659282934911,12.324635074648057,30.816404949326277,-2.5802490862635326,-19.877891271778882,12.666233927273858,-9.613638177065392,-12.822544574989832,-20.314123932328517,19.764011624068235
2024-06-18 04:31:34.500,0.3420860393909001,-0.21761557699159162,-0.09945897905405895,13.648438670402472,32.15104706900808,-2.813995482202947,-20.535940336902282,13.343796549651463,-9.83649037677267,-11.37236370851514,-17.957332752387067,18.982234458332844
2024-06-18 04:31:34.600,0.29246106978180786,-0.19940586287069306,-0.07469664021361734,14.490183784927979,32.540696225778746,-3.0106805265366114,-20.881031306348635,13.055728042660892,-11.051945749243615,-9.760340989285357,-14.795924521481668,18.827191454296955
2024-06-18 04:31:34.700,0.24355943348268874,-0.178172199854829,-0.0516346521625587,14.433862276488021,31.728620738895554,-3.13038814187123,-21.86926390955308,13.115593344813092,-11.159387264196718,-8.265388880091853,-12.36269386537631,18.075872463938264
2024-06-18 04:31:34.800,0.19121238027777843,-0.15212885240314108,-0.031374937811267475,14.44732313084126,30.3297715971662,-3.262988031762617,-22.178902114232677,12.779765090908226,-12.32227197301854,-6.556583580133946,-9.131088769755822,17.839517659031266
2024-06-18 04:31:34.900,0.1359905624974321,-0.12133861726571084,-0.014431262606111401,14.581047207749847,28.291715981182424,-3.413724155334803,-22.701044864535614,13.27659948596087,-12.071899786180886,-5.049714113093583,-6.749656996167015,17.070779994483047
2024-06-18 04:31:35.000,0.08242585156495782,-0.08633995681992013,-0.00259663646136332,13.985655370343494,25.033388210078204,-3.5026777476507127,-22.76330711329665,13.711849684325541,-12.886550548095064,-3.523481092854304,-3.963591513673807,16.779435611501935
2024-06-18 04:31:35.100,0.03027143110435863,-0.0467126256994346,0.0032267835255739745,12.85508375795593,20.625903018828808,-3.5480069217292383,-23.312418300612865,14.120471400331137,-13.105239072489931,-2.1171408331906183,-1.8510534045895024,15.9773042768056
2024-06-18 04:31:35.200,-0.01839068268289104,-0.014770664192179194,0.008403328572831928,11.975321872618384,17.272409202176288,-3.588826591602107,-23.58768724277755,13.87650484626091,-14.070308424146036,-0.6982607596174232,0.6045442868789958,15.614321010963822
2024-06-18 04:31:35.300,-0.06218844530859138,0.008304050899286448,0.012443632631495763,11.301752254990836,15.07470157253843,-3.617324277033893,-24.313433391991637,14.12620540003577,-14.587558154262577,0.5586768059297357,2.365031577947479,14.802964645628034
2024-06-18 04:31:35.400,-0.10163348075862252,0.028658922313813805,0.011464070231293916,10.578294279282735,12.992725054859372,-3.6256794728017616,-24.80534136033245,13.347737063914888,-15.581491986078662,1.818047865202394,4.4342387286910245,14.389962948375604
2024-06-18 04:31:35.500,-0.13542278687455744,0.04281499183181588,0.00625025101336197,9.982718568559351,11.599255406483731,-3.6204477051840427,-25.46259325955495,13.528518920644036,-15.052432133525633,2.8579916502981444,5.754846291055095,13.607960339784839
2024-06-18 04:31:35.600,-0.16251543720624942,0.057746784693873274,0.001745215591217083,8.820760341835959,9.380359485617998,-3.556511310744414,-25.611008004759963,13.445940885828866,-16.325553474596518,3.8421590047498095,7.268851309898787,13.234272394588132
2024-06-18 04:31:35.700,-0.18214165935437127,0.07385946192246994,-0.0022069646306002305,7.048403027267102,6.2195810578819835,-3.430410226327624,-26.034154114770033,13.900791481464882,-15.928235114697596,4.635736902801261,8.12865070998128,12.506407771243698
2024-06-18 04:31:35.800,-0.1931178329606637,0.08456889082576832,-0.007657684634101275,5.148538424371822,3.350573378036466,-3.268148850080382,-26.193307253544056,14.076248123545495,-16.60188492063405,5.349185855191061,9.150444775593632,12.1519643706433
2024-06-18 04:31:35.900,-0.1945309364677332,0.09122639753802987,-0.013483203966270261,2.959039937600452,0.43523243007780116,-3.0580658929280045,-26.83205007612673,14.280316304951636,-16.87424814660505,5.874731510063331,9.562519569876281,11.454512938121725
2024-06-18 04:31:36.000,-0.1997869431927454,0.09867933271149631,-0.01816237570145387,1.249356081090107,-2.0603211421896126,-2.9237372966178294,-27.163920913048933,13.885209501318943,-17.333815529064612,6.315325888673737,10.124711281784435,11.108402119914102
2024-06-18 04:31:36.100,-0.209377329797822,0.10636758525824068,-0.02148079169510505,0.13976126566432817,-3.9399675255189273,-2.8783732916856897,-27.7662932063176,13.753634749701957,-16.69855727536481,6.576931290662608,10.131163036132158,10.44212933501376
2024-06-18 04:31:36.200,-0.2156851302214621,0.1127174756649704,-0.023185377007527114,-0.8546584143219059,-5.655610756069257,-2.853923348320788,-27.91448904594635,13.795908617426665,-17.000080192253808,6.74852736047907,10.290413254472242,10.099808781339947
2024-06-18 04:31:36.300,-0.2219281569280756,0.118670557194055,-0.022649066200976845,-1.506665776187516,-7.026608624048402,-2.885072880550538,-28.32018765362557,14.337513354922017,-16.573985016307944,6.743052483801315,9.94658848904247,9.453977922671372
2024-06-18 04:31:36.400,-0.21897508264285112,0.11949203081655321,-0.021537371511975958,-2.1526905831504326,-8.019807339145462,-2.9045740160582723,-28.3756913907696,14.632814601244638,-17.470858011167454,6.644924916448871,9.765480519187877,9.107292443300212
2024-06-18 04:31:36.500,-0.20560548648854343,0.11476398273088677,-0.01958318059214545,-2.828361076536444,-8.64661207179328,-2.906790543223553,-29.253185483348773,13.972392136054536,-16.28010408489775,6.393912848167184,9.143096694205726,8.470118563799566
2024-06-18 04:31:36.600,-0.18877851226445788,0.10744735409587869,-0.015217492636025627,-3.162956182469998,-8.743363099831427,-2.9556143981521315,-29.766667313635764,13.500035489857256,-16.23163309517924,6.075560722702802,8.6953420589837,8.114050471150664
2024-06-18 04:31:36.700,-0.16609896120723816,0.09632265461022818,-0.00856518832007925,-3.2226318163748666,-8.282102426544503,-3.037124226733686,-29.97167182276664,14.067105563541084,-15.549033351764706,5.630668426050791,7.862464900150634,7.498329182085226
2024-06-18 04:31:36.800,-0.14751130503145374,0.087072882265888,-0.004198683989443826,-3.40579158099944,-8.134385065276245,-3.0694580788525037,-30.215061438796308,13.796786246390637,-15.601416188120995,5.125290554783616,7.226600644540463,7.160407970791455
2024-06-18 04:31:36.900,-0.1345706209723918,0.08039949800398044,-0.0022070874931566994,-3.688739009648876,-8.328555655730947,-3.0539274396089326,-30.68146059153869,14.213179509072699,-14.975384196893263,4.527431425746931,6.274713737382884,6.572018677378114
2024-06-18 04:31:37.000,-0.12064702194832942,0.07259350419730712,-0.0003254214507620402,-3.9152939661856885,-8.404525099086841,-3.020839830618551,-30.881976466864746,13.929561685062858,-14.868276115085928,3.8928965635470587,5.541011980695832,6.246590190088521
2024-06-18 04:31:37.100,-0.10862658193546205,0.06521251679061452,0.0003392466376977113,-4.1707549104270525,-8.574491933991151,-2.9504408990032944,-31.764445847280104,13.623701732651947,-14.186515794742599,3.2028614920792786,4.556057973503778,5.666020429298691
2024-06-18 04:31:37.200,-0.0939093856659192,0.05543582246506045,0.0026359727056945947,-4.120130502661025,-8.261773968529411,-2.907105926529103,-31.979458427277,12.700112499599694,-14.247003535177003,2.500419041165019,3.8102568041155256,5.303617476777596
2024-06-18 04:31:37.300,-0.0758782696163651,0.042852460931686334,0.006858377665819403,-3.732652771821564,-7.400176812001294,-2.8947633216215802,-32.49957296710089,13.421260324448193,-13.544411203786268,1.7938667039380387,2.8694242793164273,4.67622086618924
2024-06-18 04:31:37.400,-0.05933349535387846,0.030167058663545097,0.010713956324442955,-3.2357931563382576,-6.441877090199974,-2.865301610169873,-32.54818241601761,12.634287337940496,-14.269133006235968,1.0978612036799167,2.1710531638677018,4.256640272111268
2024-06-18 04:31:37.500,-0.043258572666742726,0.016703398964641257,0.014883105166093704,-2.5452974367891663,-5.243531195137232,-2.8331728284936792,-33.818857600570354,13.563140432316155,-11.6265361341652,0.4804101532817773,1.3621755403133338,3.6024112493239757
2024-06-18 04:31:37.600,-0.02811180710931414,0.005387598118076658,0.017695165979373813,-2.1619137295307387,-4.419698850034904,-2.7139181336729243,-34.07605728170179,14.903191991812559,-11.325366608523405,-0.1836242626712767,0.7450298673221728,3.1683106036381403
2024-06-18 04:31:37.700,-0.01467984883178421,-0.003124442767560689,0.018736147118074028,-2.1515757874318964,-4.075781069860551,-2.493760635664341,-33.37801949673403,13.901658817526405,-10.191905618334285,-0.37195889157341466,0.4961753675731425,2.5707133273110676
2024-06-18 04:31:37.800,-0.0021481900805154644,-0.01066843177803976,0.01929565581333414,-2.210359948812707,-3.812217734214332,-2.222632941199658,-34.2964920388552,14.183859481301111,-10.247910037481187,-0.1068594702992612,0.4381250292854653,2.1258892476809774
2024-06-18 04:31:37.900,0.009036451153068845,-0.016268880531390875,0.0188326055005414,-2.48128913410503,-3.8139300758158377,-1.8747714775407602,-34.20162337600852,13.97128886283097,-9.563722585744882,-0.2983044702794021,-0.19538062703006157,1.5390857077427356
2024-06-18 04:31:38.000,0.017928680818646448,-0.021010872894732278,0.017820872922137524,-2.716443376564034,-3.814566866420464,-1.4870283802747633,-33.87890625771964,13.487365355939314,-8.36200146032608,-0.5097877775483897,-0.5079057940346132,1.326758872667125
2024-06-18 04:31:38.100,0.024368885310562312,-0.024934921775149485,0.01634363020349323,-2.8895854093307363,-3.7848566256473486,-1.0618871934533423,-33.34115337514248,13.932600101916611,-9.117170781355759,-0.9290171236797153,-1.1106701634710183,1.0477792842680533
2024-06-18 04:31:38.200,0.028256987393799306,-0.026556841286132126,0.013666178210889196,-3.249308113434731,-4.023724208938577,-0.5571854365866322,-33.18105007119227,13.45122925329985,-8.74030578780331,-1.3951651500068516,-1.4501121681800806,1.041696354417081
2024-06-18 04:31:38.300,0.02920569838048199,-0.026006716753681634,0.009868473038401394,-3.7432146920225566,-4.478976070432216,0.020839716329507436,-32.70768098441447,13.600559732996098,-8.777818820079418,-2.0161796561609275,-2.085694381602884,0.818400042671127
2024-06-18 04:31:38.400,0.03329761918556862,-0.028697239899751585,0.007032324776321501,-3.889475048287858,-4.507430578247369,0.40527372928964484,-32.118940385695936,13.219638658190828,-8.294156066727137,-2.5824067667323973,-2.5576159766828392,0.8261438030889442
2024-06-18 04:31:38.500,0.040902519980940286,-0.03484493909498512,0.005215188668063224,-3.6771919886332527,-4.095688701201081,0.5768076857935082,-31.65047148191035,13.243063252710376,-8.627780184078434,-3.1807857496907856,-3.2954338288579095,0.647069261847294
2024-06-18 04:31:38.600,0.048691944876258726,-0.0418674165105538,0.0034475727336855996,-3.3018343364386133,-3.5213666934073005,0.6585422317014396,-31.16525779234582,13.198534365437963,-8.166879270878132,-3.7345504656426884,-3.789858387890861,0.6612532855487468
2024-06-18 04:31:38.700,0.05822396941698467,-0.05114787370628951,0.002250570205082008,-2.639629916802486,-2.6224333117972827,0.5769165069955137,-30.908319240613906,13.118457779572475,-7.958608176938221,-4.370220197857005,-4.477146629264696,0.4868406146153212
2024-06-18 04:31:38.800,0.06568228386594384,-0.059029244285628335,0.0006197545338371151,-2.0325809190068185,-1.8533985852519543,0.49845099818487537,-30.670414575973105,12.879399315799592,-8.458806528583724,-4.998747035369449,-4.987692225869592,0.49251512304984907
2024-06-18 04:31:38.900,0.07064528558572421,-0.06520897616535293,-0.0015205925551346592,-1.499672538065317,-1.2459545100990213,0.4320022242259543,-29.810952814943562,12.699826883222308,-12.389966371654166,-5.587448282527128,-5.6194372025206425,0.3316340197504137
2024-06-18 04:31:39.000,0.0762749170488267,-0.07265131411369402,-0.003232265278915849,-0.7653431214396141,-0.43939868639534485,0.22954427204081893,-29.566557777630944,12.330641865610112,-12.358104104221146,-5.679523303569973,-5.64021533075588,0.33542169282073564
2024-06-18 04:31:39.100,0.0816564860343998,-0.08052577607736133,-0.0047198851422015995,0.09762481505647462,0.4651779087534869,-0.07574382521578964,-30.154078931899424,12.94677615951505,-12.800207310932937,-5.583574611076897,-5.638129401880708,0.10091351291907982
2024-06-18 04:31:39.200,0.0844940610867759,-0.08454848080708911,-0.00568074929016022,0.6964692914321188,1.0581852085575838,-0.24111951448449376,-30.18103503022237,12.448418203178138,-12.76539975478572,-5.266994684737204,-5.309451310994622,0.018274773060262532
2024-06-18 04:31:39.300,0.08489791498564471,-0.08462308187688912,-0.005940497893676989,1.025739065903346,1.3396120934573184,-0.2638225666429985,-30.331837752533225,12.769588846675678,-13.409955518563784,-4.861763758367591,-5.043413057959899,-0.25155571600521376
2024-06-18 04:31:39.400,0.08326345717121458,-0.0821646593520985,-0.005756333976999577,1.2211714736136416,1.4303653734476534,-0.23861078418839501,-30.178882333546394,12.901540095271335,-13.70369058218516,-4.309009786747655,-4.499197861432736,-0.3520033914341731
2024-06-18 04:31:39.500,0.0790076546665301,-0.07602308043562543,-0.0049797218589712105,1.1800189267353103,1.2232471814721488,-0.1039908023994991,-30.62897390422242,13.44978230735771,-14.336193458677554,-3.7134089330373414,-4.046159806591743,-0.6185051298063721
2024-06-18 04:31:39.600,0.07410964242001745,-0.06934611102433677,-0.003914817309893713,1.1998232974767014,1.040674837334206,-0.04172966039038575,-30.80230928973049,12.89715365559621,-14.627861364531316,-3.0251432228640383,-3.3604465939915524,-0.7199451487379687
2024-06-18 04:31:39.700,0.06855669080186465,-0.06219462785932803,-0.0025723981734210952,1.2904661982892622,0.8886390714026361,-0.06194011853165946,-31.348120799788386,12.384865035539686,-14.372833402677903,-2.349574412263485,-2.803573425676327,-0.9843959861690531
2024-06-18 04:31:39.800,0.06083513339969487,-0.05196672772662089,-0.0006444812290708713,1.2137689194559202,0.511194729950891,-0.022341519387677956,-31.204380596602444,12.9541761596182,-13.879518530339004,-1.713286201214737,-2.1880364866765767,-1.0771765506688749
2024-06-18 04:31:39.900,0.051310699902014034,-0.03926009610228029,0.0018159330854471687,1.0296553316298545,-0.02900343473060084,0.03774390665746909,-31.005067229491665,13.24541642004252,-12.916029285480066,-1.4489461706747677,-2.086875480019106,-1.3135459115075367
2024-06-18 04:31:40.000,0.04444856009922505,-0.030709548214855078,0.003744774159971,0.8389112109852016,-0.34738685572712746,0.06394616324933758,-31.07553093682851,12.568492743777353,-13.456715711574612,-1.6693858962196084,-2.1585473628447973,-1.405071930457748
2024-06-18 04:31:40.100,0.04049138288195271,-0.02661124908003963,0.005088253751574684,0.6196764967156914,-0.4402145491377402,0.0677201363551807,-31.605968440910935,12.407011162079847,-11.960045759323414,-2.3240800298414257,-2.889128018414723,-1.5743731890041404
2024-06-18 04:31:40.200,0.0375542225126172,-0.02419158221967138,0.006324519844487245,0.3615708832120546,-0.45061524421516236,0.04773253331461266,-31.40990937495185,12.29068655165146,-11.192727437197565,-3.163584078311796,-3.921871060409204,-1.4797538172069853
2024-06-18 04:31:40.300,0.03685181580787712,-0.025224089212587543,0.007170951355199481,0.0821090398517088,-0.280343636316984,-0.006693195784766507,-30.915704717701743,12.627813249928794,-9.672038433795125,-3.4088057602410697,-4.320585371241842,-1.4588507023415187
2024-06-18 04:31:40.400,0.03533745069020208,-0.025105066545550538,0.008338334080000937,-0.34499420418328935,-0.22699025701298853,-0.02789568590800013,-30.33491715669696,13.055384162557292,-12.04201200424786,-3.8172801937023757,-4.886296964468373,-1.4137499753495997
2024-06-18 04:31:40.500,0.03287232074187547,-0.023607128596636988,0.009870400954194952,-0.926668060246595,-0.3051632262167544,-0.014847017340103432,-30.313233467729745,12.038155544447909,-14.227186604938332,-4.1311911202243365,-5.215386704105773,-1.5192402047200269
2024-06-18 04:31:40.600,0.032046125743306036,-0.02457005460415153,0.011169784806404811,-1.5894597358130123,-0.28315166393233804,-0.009391672079152718,-29.03421781834504,12.46067295413684,-13.951808417339656,-3.664369553115393,-4.647175516145698,-1.4933062753854898
2024-06-18 04:31:40.700,0.0322468194162039,-0.027048553580611406,0.012386482247945687,-2.3644076301748593,-0.22446163307436154,0.0032533124999178315,-28.990393437006034,13.337945682140745,-13.563868327686816,-3.029845751527235,-3.879750264564422,-1.7685431288000302
2024-06-18 04:31:40.800,0.03380787371290081,-0.03179647779848204,0.01266056146083007,-2.93046914704462,-0.3051007584139586,0.00837278655276437,-31.193259036265307,13.509237659565137,-6.80628817712249,-1.9958416632824652,-2.7762432077675068,-1.8660121928127826
2024-06-18 04:31:40.900,0.037135178622853884,-0.03941979412738119,0.011823365982004948,-3.251999059902126,-0.5150278869925435,0.001183364208612674,-31.339377340459762,13.310671815700044,-7.059793970035444,-2.275071816385918,-2.165163656179273,-2.2202013792263346
2024-06-18 04:31:41.000,0.041712714079867305,-0.04898501325756262,0.010372146286337288,-3.505423067535118,-0.8145794018722535,-0.0002654414370817014,-31.43918738349221,12.14019832888002,-10.05831545889759,-3.4611811103842944,-2.4661722785526217,-2.464544599361208
2024-06-18 04:31:41.100,0.04778432102480523,-0.06090980220844621,0.008027381282046863,-3.5998710156604927,-1.24627873060425,-0.00029493624700999404,-31.271542264455363,13.591628856267404,-4.520348582346235,-4.2427321685780255,-2.7923228936847657,-2.9442999868074526
2024-06-18 04:31:41.200,0.05590453166829781,-0.07583554474545244,0.005120985372023937,-3.706503648045,-1.6484385193861626,-0.0009136955903532145,-30.523424273633406,13.572154227874345,-4.283776821999497,-5.08898837225102,-2.984849191481406,-3.3817605255560634
2024-06-18 04:31:41.300,0.0661433012222771,-0.09383227972850303,0.0016595405204719253,-3.8390018113119724,-2.0170716846323424,5.405345732225413e-05,-29.76849476571089,13.8245329732831,-3.670308918161456,-6.662807535219167,-4.381583955580805,-3.913794734931693
2024-06-18 04:31:41.400,0.07852284752786778,-0.11505858912496833,-0.0027924833748598403,-3.831870084543097,-2.468788534473346,0.00026060135070774454,-28.800540450991235,13.731674964244425,-3.9269744018923523,-8.040358577147302,-5.4568105139638154,-4.068486702779329
2024-06-18 04:31:41.500,0.09325224881635372,-0.1397700133614999,-0.008195840024376254,-3.7197472671005083,-2.969882687159883,-5.7448876282916586e-05,-28.171026222586097,14.332237153886153,-2.7199127379296346,-9.053542028715874,-6.406511046037051,-4.27183642310204
2024-06-18 04:31:41.600,0.10352621803136375,-0.1566442701660296,-0.012374681572598129,-3.2117654129044597,-2.941303491922153,-2.9644724182240836e-05,-27.065930290164722,13.260208615798666,-7.147524193476219,-10.117055485485205,-7.230901995667331,-4.328450846385846
2024-06-18 04:31:41.700,0.10877297635652403,-0.16470942470623776,-0.015204627278020673,-2.251909591904658,-2.3367777839403403,9.553779810355073e-06,-26.289545316078364,12.244148535798534,-14.503098343810723,-10.899670014283041,-7.991926582418954,-4.511445397235945
2024-06-18 04:31:41.800,0.11242789445664157,-0.1695842327161918,-0.017717845016044224,-0.9949453998409652,-1.404152107344492,0.0,-26.055332350347076,12.020737456917363,-13.515577879931755,-11.009706273374059,-8.021853422401437,-4.524973309726932
2024-06-18 04:31:41.900,0.11261760818050831,-0.16812590356405593,-0.019336995980798785,0.6552076253080672,0.021563973276751004,0.0,-26.54272334960705,11.853753073313401,-14.650558847638887,-10.813313765368395,-7.9426648475106845,-4.663266817708834
2024-06-18 04:31:42.000,0.11339270480862822,-0.16705179475133894,-0.0204462665203937,2.5788662341833275,1.5770860392243389,0.0,-27.021234589824136,12.409262078336743,-14.475700135318634,-10.353201941502473,-7.506532168804983,-4.628711842740123
2024-06-18 04:31:42.100,0.11503980437431924,-0.16679357150478477,-0.021039970724672792,4.7776376123885225,3.251669432749173,0.0,-27.15467711221509,12.851966353835682,-15.512559247105909,-9.692165633994712,-7.105236346629606,-4.717287528894918
2024-06-18 04:31:42.200,0.11390525374913321,-0.16123558586426442,-0.020401970350355583,7.405744431952538,5.377074097630142,0.0,-27.20922030009419,12.719253818951428,-15.807102001887456,-8.856220587287211,-6.444393037666729,-4.677300922137212
2024-06-18 04:31:42.300,0.1108274143181674,-0.1517357696582926,-0.018536606444675918,10.45079807339578,7.886923309739016,0.0,-27.47313726639133,12.256050799666104,-16.117849975876066,-7.90980282809413,-5.843564052853879,-4.773505060299304
2024-06-18 04:31:42.400,0.10444839268374286,-0.1411303144146552,-0.016394708871253556,12.256188934049844,9.37727669023978,0.0,-27.5284239660841,12.252002099047422,-16.165601064701193,-6.867341888374344,-5.0084387505113614,-4.747166418807117
2024-06-18 04:31:42.500,0.09409403863158064,-0.1287886043575065,-0.01387531686512772,12.68770378839683,9.758410254142468,0.0,-27.49490138119283,12.652213236152425,-16.567698932689236,-5.785785774808388,-4.2559169037137465,-4.855704766697761
2024-06-18 04:31:42.600,0.08089545787815015,-0.11415523910345143,-0.010437350574081709,12.527473242548984,9.655421320986907,0.0,-27.57327776432169,12.872846556055055,-17.166643582828634,-4.662943033107527,-3.312740524377453,-4.848122284067001
2024-06-18 04:31:42.700,0.06424194262074448,-0.09767207396900288,-0.006234665921130962,11.313818028461023,8.68429038209734,0.0,-27.825464614002716,12.613742824161871,-17.822822575692275,-3.5376100202343075,-2.481456883592739,-4.979227264630122
2024-06-18 04:31:42.800,0.04608388942694192,-0.07786009040889813,-0.0026431774732989144,10.057029124563185,7.754128887058742,0.0,-28.19327337041289,11.993176474151571,-18.03845712170462,-2.41420823690843,-1.4929771259051714,-4.996559859641312
2024-06-18 04:31:42.900,0.026560279201634812,-0.05463412654583438,0.00026428522813775923,8.811184330710928,6.910853698588824,0.0,-28.308314792126794,12.094412225691576,-18.384767536367935,-1.342102552663072,-0.653987243066843,-5.1502993340042345
2024-06-18 04:31:43.000,0.004096039866611456,-0.02899343653673544,0.003050244290613493,6.662427849011577,5.362708789923025,0.0,-28.43554216259418,12.142135852104659,-18.86164176014094,-0.3230959309800522,0.29570340194815536,-5.193155787992415
2024-06-18 04:31:43.100,-0.020872234871986056,-0.0005974169336477755,0.005337718491250829,3.8099246891116794,3.29194030682426,0.0,-28.527202302080507,12.397461287883976,-19.593982808304716,0.606067892569543,1.0592202475012649,-5.3642069228811575
2024-06-18 04:31:43.200,-0.038685621303631165,0.01979717157955839,0.007347405702649234,1.8659236589082235,1.7510974778470219,-0.006699865694917225,-28.569417036412563,12.402011786411203,-20.0737867682576,1.4557619680218283,1.900190557174438,-5.418810173330504
2024-06-18 04:31:43.300,-0.04853669369094203,0.03100076841927245,0.009041587587950747,0.8559021699874054,0.7322999484634564,-0.020789224215593132,-29.00230196256651,12.03216725254608,-19.938445920810747,2.1993752095697103,2.5242862907573334,-5.595120377242679
2024-06-18 04:31:43.400,-0.05463744400565798,0.0383050502783438,0.009952669481974557,0.1351658546151609,-0.1512139401592768,-0.03913654835209265,-29.348708959816168,11.95432119111147,-20.336993072489495,2.841092294435866,3.199341537644389,-5.645388845963289
2024-06-18 04:31:43.500,-0.05422923175541028,0.03857211551055948,0.010055625701491681,0.11366296150115776,-0.6398773539925734,-0.06369371220034596,-29.780382582705986,11.038090417055054,-20.413686971011582,3.2680923226622496,3.5345900981736156,-5.815310200870662
2024-06-18 04:31:43.600,-0.05322463494294408,0.03773992495973093,0.009992252343048126,-0.3499661600170829,-1.3164581503461104,-0.09062767698391941,-29.60333095152887,11.765439398875458,-20.07241200081002,2.7626519808937866,3.0617662798794827,-5.9120739852568125
2024-06-18 04:31:43.700,-0.05180421412681933,0.036060874261713255,0.009681332018358517,-1.3192129441908094,-2.2018421676752937,-0.11980971273089717,-30.065907533524317,11.127224798900288,-20.00056129691469,2.0469766654104182,2.2704206705867698,-6.161378764613115
2024-06-18 04:31:43.800,-0.04449968806868368,0.02770259222356989,0.00872165607115106,-1.8789625488751187,-2.783475658842707,-0.15494598385537642,-30.008186997677576,11.082900620830085,-19.417705376841607,1.4456915573205216,1.740232373498489,-6.297802749662704
2024-06-18 04:31:43.900,-0.032384150559108184,0.013731346042460579,0.007204630269895946,-2.272794547958318,-3.1721760793560465,-0.19535826898583597,-30.11963049188123,11.231483305360074,-19.246239751449785,0.8171617218353052,1.0722809159125906,-6.568026428336596
2024-06-18 04:31:44.000,-0.0250075610376674,0.006121584904080571,0.006461661970938398,-2.5592496960937625,-3.433185933942125,-0.21545513752405487,-30.53609298361298,10.44212773892548,-19.282066091421306,0.23862839016379783,0.6090333376616732,-6.727769904630561
2024-06-18 04:31:44.100,-0.02243809725235123,0.0050882409235900325,0.006565557138859536,-2.6292905867567504,-3.493492328092052,-0.21325014359090871,-30.353571437134676,10.83601022842818,-18.841815156535525,-0.3200411153503176,0.036920637963483306,-7.011239046672388
2024-06-18 04:31:44.200,-0.020701549108601634,0.005478414757425573,0.006926722138571485,-2.6166493059762512,-3.380887005404566,-0.2004277936075548,-30.429686905796487,10.769362496301772,-18.7074772897795,-0.8099000199214447,-0.2919877464271727,-7.169071361172739
2024-06-18 04:31:44.300,-0.022158103767930613,0.010294994360522875,0.007903970769227213,-2.5005426161381568,-3.0800024469817946,-0.16984223578669916,-30.80501138799686,10.151211616841845,-18.515999352148963,-1.2356311531394155,-0.6978827562275285,-7.445369827847005
2024-06-18 04:31:44.400,-0.019749830669317348,0.010817026001004587,0.008552306703966025,-2.1657411277214296,-2.5990344562289325,-0.13734303035218712,-30.81228419020623,10.135279931143513,-18.544805110443384,-1.0808009475485947,-0.1320906560678923,-7.511971825826278
2024-06-18 04:31:44.500,-0.012983773660438316,0.006422780405798658,0.008816932660939253,-1.6210583475529996,-1.9345055637389765,-0.10367495953148168,-30.60494427788025,10.633590635667815,-18.70922832477342,-0.5225355108641543,0.1615118686817502,-7.767277543027943
2024-06-18 04:31:44.600,-0.007304509993888634,0.003928833804131014,0.009479462805346676,-0.8950583227407597,-1.0553226837117105,-0.05455200151216064,-30.605397102979005,10.514830862053014,-19.117851598607896,0.07694410584082623,0.08219059122783584,-8.020462644196211
2024-06-18 04:31:44.700,-0.0011184665364400834,0.0013720861544108671,0.010340308656740023,0.03759717776233256,0.04210401172744907,0.006950727889902704,-30.877145934530894,10.142037063433175,-19.38364337020525,0.6292148063558024,0.04911197838087112,-8.375101421047097
2024-06-18 04:31:44.800,0.0034553803307325586,-0.000811455343595547,0.010753874052881567,0.630935338385197,0.7498546643761569,0.04514719954850924,-30.993492501912424,9.54692382531089,-19.413033492498187,0.5331995881545051,-0.08006519725487857,-8.563335000656513
2024-06-18 04:31:44.900,0.00560197876253671,-0.0018114775828810164,0.010756781046604302,0.8347852321862054,1.0162914722644716,0.05858669008665298,-30.843920964451907,9.789385044952237,-18.901921062022154,-0.10397290929081271,-0.1967278259940677,-8.771200014675333
2024-06-18 04:31:45.000,0.007456317585135813,-0.0032290895553980215,0.0105227248278713,0.9275670782352886,1.1346653276089351,0.06230946658861976,-30.577316928405743,10.236310429361735,-19.015804383970643,-0.22605267763006276,-0.32357052407208853,-8.814078595597703
2024-06-18 04:31:45.100,0.00825173617620012,-0.0047348476218697704,0.00990004805223306,0.757216591214563,0.935210722122743,0.04687646196026782,-30.540066105182127,10.340965490270657,-19.095284991338577,-0.054469734105737584,-0.31473254705040515,-8.858125463461104
2024-06-18 04:31:45.200,0.007913432687313086,-0.004954003757489025,0.009467456455572983,0.6303148258982324,0.7833439144078678,0.03697649630659968,-30.687490566644733,9.962526458694395,-19.36100124989916,0.07362117307100702,-0.1658352388831293,-8.818608372372022
2024-06-18 04:31:45.300,0.00655833038441033,-0.003969374091570582,0.009248468908292905,0.5675459048683745,0.6998054499930775,0.033923017934524194,-30.71362715879566,9.744848659446639,-19.258488535922183,0.16304920404931392,-0.13190728338749097,-8.879185159614003
2024-06-18 04:31:45.400,0.003494748690098369,-0.0021212899414380895,0.008830917676682924,0.28195498671955427,0.3517671512833529,0.017255202851539246,-30.80766142068976,9.502412045410653,-19.252504284662493,0.23497479082290026,0.022891785800965934,-8.838166041054121
2024-06-18 04:31:45.500,-0.0013380889039311245,0.0009090800476918345,0.008341278268265426,-0.1651245838211338,-0.1884243988622025,-0.007887080277858253,-30.50028906097578,9.965353829026371,-19.441920838354207,0.2748272987853693,-0.05605045265718034,-8.942251695838191
2024-06-18 04:31:45.600,-0.003836228659195828,0.002414513843509126,0.007998583683858583,-0.3861622243874738,-0.46020570217603574,-0.021055087916522636,-30.210533440835924,10.581214203665645,-19.343743548134753,0.2139831808304371,-0.10727292531298346,-8.996413584673922
2024-06-18 04:31:45.700,-0.0038007081368273943,0.0021988404827252704,0.007782884248104867,-0.3858953296130831,-0.4673912296695062,-0.02289622361462935,-30.46463065198953,10.058729330469408,-19.165176637374167,0.09260091125484529,-0.19274416056626212,-9.099769485518346
2024-06-18 04:31:45.800,-0.0032942801360584,0.001827672802141059,0.0076825285753979525,-0.31195187015473014,-0.3856182165953588,-0.01973541658023477,-30.69950008036123,9.482041989790632,-18.84992018976757,0.03327285606178692,-0.21853570775513564,-9.090852133288392
2024-06-18 04:31:45.900,-0.0012664624900942272,0.0006049319900651918,0.007752247625300619,-0.07061439599648542,-0.10251633650475898,-0.00661581527489301,-30.33838339031033,10.350609664382224,-18.931387643642367,-0.02132180972303385,-0.2843938394962622,-9.155755777461403
2024-06-18 04:31:46.000,-0.0003226885782636941,3.3236563710178523e-05,0.007763270744761985,0.034060080488336635,0.02140953785783755,-0.000836254292618176,-30.575951233001163,9.826936164513793,-19.184038825425997,-0.0286810409494007,-0.2644872168455255,-9.134618610034991
2024-06-18 04:31:46.100,-0.0007019504343918585,0.0003007557063207721,0.007719076457716909,-0.017437652650998746,-0.036342455743707876,-0.0031556849085172477,-30.609576179662156,9.638284002607874,-18.804670957460157,-0.015995328612499443,-0.29103320604332633,-9.208127241204052
2024-06-18 04:31:46.200,-0.00024120710219740002,9.469643636740083e-05,0.007783629636582264,0.0022473636538019558,-0.0045268022373927234,-0.0008461218786455769,-30.45141867329166,10.030905909016953,-19.198585382925334,0.04056512016578839,-0.24154561800126134,-9.18735116859974
2024-06-18 04:31:46.300,0.0004627661928395951,-0.00022293130886123804,0.007914084945484614,0.024341798574724554,0.035905199699707506,0.002341309983534441,-30.593823406851158,9.67985807641152,-18.778872571898336,0.0730097620388759,-0.2543542871540756,-9.247332944051719
2024-06-18 04:31:46.400,0.0007640554794199393,-0.0003551266937177355,0.007961672478844882,0.034248032642294444,0.053820471524869136,0.0037602342653284973,-30.469595474952463,9.927536612728069,-18.822356682009254,0.11369015986746303,-0.18882046062651997,-9.218645831838135
2024-06-18 04:31:46.500,0.0008520638824463971,-0.00042474449195381315,0.007932833784527006,0.05416898181171617,0.0749583855695226,0.004537150050677008,-30.408027089369337,10.208856549950402,-18.75261583991385,0.1416369466686486,-0.20133040503295205,-9.280186195269373
2024-06-18 04:31:46.600,0.0006073241661420288,-0.00030701975968667377,0.007871925603019192,0.04079216859378375,0.05545372659357514,0.0032773985205812907,-30.493128042783493,10.060580436020667,-19.17720398781122,0.18827729757930925,-0.13672383448531733,-9.252297532258735
2024-06-18 04:31:46.700,-8.322042361006039e-05,4.085276825616527e-05,0.007743451592024633,-0.00493921857783934,-0.006992530496850017,-0.0004355788094330789,-30.705827469918372,9.723160113008747,-19.14465812910334,0.21703749623100108,-0.1522276358740412,-9.314152290995288
2024-06-18 04:31:46.800,-0.0003486866245716162,0.0001723532460744864,0.007685606097866524,-0.02132721110946403,-0.029887384269991702,-0.0018381781953896834,-30.596869630159166,9.649700822979495,-18.94849732031972,0.2575023047517198,-0.09400151946825616,-9.28633043688529
2024-06-18 04:31:46.900,-0.00018873924859628475,9.530858688504301e-05,0.007705117756335761,-0.012621225134454397,-0.01718142426090663,-0.0010173629575283907,-30.473172743813723,10.057287358525581,-18.807168108381433,0.27549160665638783,-0.11633491250469716,-9.347112059699285
2024-06-18 04:31:47.000,-0.000120712049786936,6.178720428009062e-05,0.007704355069503694,-0.008515922786155372,-0.011402290511396056,-0.0006598967854352393,-30.373242963047655,10.277387167963878,-19.13045461994363,0.30128833424841467,-0.06760927553896683,-9.318289428461124
2024-06-18 04:31:47.100,4.162338376816108e-05,-2.118607823051336e-05,0.007714269460669557,0.0028727912742512384,0.003872386074577468,0.00022622036021129933,-30.56208599570767,9.97022512121545,-19.13982473241709,0.30112546556777176,-0.10150138621804101,-9.378874725717353
2024-06-18 04:31:47.200,0.00010643220267767758,-5.374251841735603e-05,0.007717805912004466,0.0071156094420951705,0.009687269230851267,0.0005736683765574932,-30.707247300184125,9.676794863754106,-19.384409670925447,0.3069056675729384,-0.06699253077013605,-9.350288806318572
2024-06-18 04:31:47.300,1.4962264317591597e-05,-7.504711336948069e-06,0.0077037624388157245,0.0009733754831632596,0.0013367333858861625,8.008664369969018e-05,-30.576668491134345,9.808639694225453,-18.75899861083056,0.29914116475436003,-0.09822580522283747,-9.409903741752688
2024-06-18 04:31:47.400,-3.368717085847242e-06,1.6975721571161216e-06,0.007702949101905004,-0.00022337612666817265,-0.0003048978601083369,-1.8119067162744957e-05,-30.43612117323054,9.939832966500617,-18.757157888328912,0.30878693488805053,-0.03157050104974486,-9.381712315844386
2024-06-18 04:31:47.500,-3.743035697295519e-06,1.8861997077509203e-06,0.007708784185867587,-0.0002481968045209982,-0.00033877691279245306,-2.013238674057201e-05,-30.429411437723026,10.180001306538022,-18.84172438647911,0.3029546650102626,-0.044951732974752454,-9.44101907752043
2024-06-18 04:31:47.600,-1.1595710075736122e-05,5.843338595947954e-06,0.00770774993755832,-0.0007688994761736102,-0.001049511460425721,-6.236898032923994e-05,-30.357185928142993,10.265946578948405,-19.127848072109373,0.3098454516595305,0.013952084217832585,-9.41264123427053
2024-06-18 04:31:47.700,6.859923877467025e-07,-3.4568696264961875e-07,0.007702835368850229,4.548744183430605e-05,6.208820917413845e-05,3.689696056381123e-06,-30.473407045710566,10.21850355678899,-18.904493644472492,0.3007575458738682,-0.006574959975629578,-9.471117594312341
2024-06-18 04:31:47.800,3.3072915531791634e-06,-1.6666184523863778e-06,0.007695087220908344,0.00021930306347638058,0.00029933832127226293,1.778868223472706e-05,-30.655719871531655,9.62899982118398,-19.17216249903977,0.3019781617446009,0.04438977842476941,-9.44264819755594
2024-06-18 04:31:47.900,-7.290836473184802e-07,3.6740161561689696e-07,0.007682220296454305,-4.834477844379331e-05,-6.598833865904103e-05,-3.921467798089126e-06,-30.186572047948932,10.348319515962185,-18.9381571635853,0.28590707436590984,0.015895151263425243,-9.501776268926228
2024-06-18 04:31:48.000,-3.7622117313660385e-07,1.895862941763294e-07,0.007677442158632297,-2.4946834739811474e-05,-3.405125087491542e-05,-2.0235527443808435e-06,-30.363230369189974,10.34967254778882,-19.21264355297468,0.2859739001887239,0.0673181605914164,-9.478790782043607
2024-06-18 04:31:48.100,1.2124701265710653e-07,-6.109909130835908e-08,0.007681240310355407,8.039763318569006e-06,1.0973897113233718e-05,6.521422576107423e-07,-30.55998894698569,9.544457506380546,-18.628729846890568,0.27948264642144044,0.044404677086066734,-9.533031827719258
2024-06-18 04:31:48.200,0.0,0.0,0.007685541573034555,0.0,0.0,0.0,-30.417759001423974,10.157430935620313,-18.943010650523963,0.3039270642415607,0.10284458809082679,-9.508618565811707
2024-06-18 04:31:48.300,0.0,0.0,0.007693395713156883,0.0,0.0,0.0,-30.39960185485999,10.17670070487243,-18.827754388786435,0.32668621236660056,0.09333814476926605,-9.567781575951084
2024-06-18 04:31:48.400,0.0,0.0,0.007698510166492278,0.0,0.0,0.0,-30.527297295709502,9.816884252458552,-18.72312298526308,0.3672333306795738,0.1589723497382537,-9.54233392572867
2024-06-18 04:31:48.500,0.0,0.0,0.00769973261028131,0.0,0.0,0.0,-30.475544653628354,10.050826085896158,-18.82395900120683,0.4022115471850969,0.15535840248450186,-9.601374250356374
2024-06-18 04:31:48.600,0.0,0.0,0.00770243895484205,0.0,0.0,0.0,-30.53219447603394,9.879321195721465,-19.63707811712381,0.4492406945920168,0.22599789755123298,-9.577841369268342
2024-06-18 04:31:48.700,0.0,0.0,0.00770489908670275,0.0,0.0,0.0,-30.862692623847263,9.16497163073321,-19.243427619858224,0.47499854599994107,0.2202199051828022,-9.636784140433043
2024-06-18 04:31:48.800,0.0,0.0,0.007706852794938671,0.0,0.0,0.0,-30.469384348023205,9.85540291049124,-19.148329603184177,0.5065186590669865,0.27896373813497227,-9.612771688959215
2024-06-18 04:31:48.900,0.0,0.0,0.007708742756482714,0.0,0.0,0.0,-30.29044770406429,10.382099206296736,-19.058635681970244,0.5184540712044858,0.26049452297421993,-9.670514305832612
2024-06-18 04:31:49.000,0.0,0.0,0.007709257492239734,0.0,0.0,0.0,-30.43986538731779,10.202566296058146,-19.557008415649324,0.5399437426773012,0.3100352875005174,-9.646251709210148
2024-06-18 04:31:49.100,0.0,0.0,0.0077083618471539585,0.0,0.0,0.0,-30.662386464824365,9.740342277363414,-19.139717966471448,0.5444357852258132,0.28654061980873463,-9.703193247198989
2024-06-18 04:31:49.200,0.0,0.0,0.007706970178916859,0.0,0.0,0.0,-30.534507445623426,9.711011257609451,-18.987532108463263,0.5625711673320384,0.3343268119707486,-9.678882032907687
2024-06-18 04:31:49.300,0.0,0.0,0.0077048087381563525,0.0,0.0,0.0,-30.44714720909422,9.989742486866048,-18.54319123061292,0.5455748222185861,0.2961150851076384,-9.734981021479182
2024-06-18 04:31:49.400,0.0,0.0,0.0077013086556399915,0.0,0.0,0.0,-30.403738939883567,10.234190073819228,-19.106180991672574,0.5096939158180664,0.3055416182571037,-9.710481381620244
2024-06-18 04:31:49.500,0.0,0.0,0.00769651032399216,0.0,0.0,0.0,-30.548707348163113,9.929591756964358,-18.966681758409926,0.4718817539192738,0.2525726030378129,-9.766970146220027
2024-06-18 04:31:49.600,0.0,0.0,0.007693809759770243,0.0,0.0,0.0,-30.662830624195344,9.678417374163491,-19.621608626339057,0.4448004169412077,0.26723947991132124,-9.743457602531308
2024-06-18 04:31:49.700,0.0,0.0,0.007693407262997511,0.0,0.0,0.0,-30.854751248326334,9.355855724878785,-19.347046873439158,0.41480477441735636,0.21981192082048176,-9.799227716732155
2024-06-18 04:31:49.800,0.0,0.0,0.007693630559879219,0.0,0.0,0.0,-30.78586843965993,9.40809458387933,-19.303116618991336,0.3975703231385886,0.24082854214855595,-9.776566745290017
2024-06-18 04:31:49.900,0.0,0.0,0.007695376998767949,0.0,0.0,0.0,-30.61373975581411,9.777368217061932,-19.214922785105365,0.37612527235394333,0.19730383432240536,-9.83352764026036
2024-06-18 04:31:50.000,0.0,0.0,0.007696297970586685,0.0,0.0,0.0,-30.443149017751196,10.051588543707002,-18.914250968489814,0.3352931194724938,0.19914938347848476,-9.826230546010141
2024-06-18 04:31:50.100,0.0,0.0,0.007696203264169203,0.0,0.0,0.0,-30.682060393779608,9.814684422068717,-19.113601340971847,0.3002376084119576,0.1423174154139181,-9.894205732806462
2024-06-18 04:31:50.200,0.0,0.0,0.007697016360866475,0.0,0.0,0.0,-30.49766838458244,9.853593977355583,-19.18994973187549,0.28797203405083494,0.1595728994980467,-9.875254798493115
2024-06-18 04:31:50.300,0.0,0.0,0.007698208704077743,0.0,0.0,0.0,-30.22964482946623,10.620750064094173,-19.046684912577494,0.27349030876724667,0.12265339264659166,-9.933870143704608
2024-06-18 04:31:50.400,0.0,0.0,0.007699254966864148,0.0,0.0,0.0,-30.724329218414056,9.763859924986209,-19.02335579726622,0.25974380497469646,0.14399699126325136,-9.91108635378354
2024-06-18 04:31:50.500,0.0,0.0,0.0077003308629374715,0.0,0.0,0.0,-30.641832126821683,9.672877765631416,-18.78264706977804,0.22895440283110455,0.09811822998217373,-9.960373850776305
2024-06-18 04:31:50.600,0.0,0.0,0.007701313821670363,0.0,0.0,0.0,-30.54639288343017,9.816856349676517,-18.842480295441774,0.20935525596856938,0.11785038160676382,-9.916181015537896
2024-06-18 04:31:50.700,0.0,0.0,0.007702119650465371,0.0,0.0,0.0,-30.511541698141745,9.955042991448122,-18.606440843908807,0.18726209165985164,0.07879825446675033,-9.95680056293088
2024-06-18 04:31:50.800,0.0,0.0,0.007703510127858641,0.0,0.0,0.0,-30.598598422239426,9.818252603427634,-18.903904049017935,0.17520954892949436,0.10360815939465709,-9.93012483260746
2024-06-18 04:31:50.900,0.0,0.0,0.007705489319960785,0.0,0.0,0.0,-30.343484339608175,10.455991278995851,-18.895106214953994,0.150653528059486,0.06466810172283638,-9.984544507625511
2024-06-18 04:31:51.000,0.0,0.0,0.007707620804098164,0.0,0.0,0.0,-30.66495223407929,9.860066654364294,-19.12728660438364,0.13485895097483988,0.0840642577140346,-9.96093906842654
2024-06-18 04:31:51.100,0.0,0.0,0.0077100719630391465,0.0,0.0,0.0,-30.691909520534782,9.778151296955784,-18.96890571466068,0.10453440096675534,0.03677626774017162,-10.014808718538745
2024-06-18 04:31:51.200,0.0,0.0,0.007710359372730308,0.0,0.0,0.0,-30.69657933103728,9.56053967458542,-18.831330114414882,0.0785718527098917,0.04670436860560438,-9.990774503703532
2024-06-18 04:31:51.300,0.0,0.0,0.007708200542286034,0.0,0.0,0.0,-30.50868706343079,10.039939233046196,-18.62949433978878,0.041865253102699944,-0.005923521639405351,-10.044247450253554
2024-06-18 04:31:51.400,0.0,0.0,0.007704886552268372,0.0,0.0,0.0,-30.558280326733335,10.054834009822585,-18.978961746695564,0.010204515254653535,5.546823268414454e-06,-10.020969801185332
2024-06-18 04:31:51.500,0.0,0.0,0.007699699696127112,0.0,0.0,0.0,-30.516536601734725,10.239806154590562,-19.01236492283918,-0.024907316332684327,-0.05117493296443632,-10.075003578068442
2024-06-18 04:31:51.600,0.0,0.0,0.007693954189620287,0.0,0.0,0.0,-30.6624482926728,9.676067697340558,-19.04301613379286,0.001243299731680951,-0.0061410944605726535,-10.051982671486002
2024-06-18 04:31:51.700,0.0,0.0,0.007687725432678695,0.0,0.0,0.0,-30.567579404515733,9.838665328210965,-18.664904775299878,0.026619423766265533,-0.016645477252804245,-10.103976095965182
2024-06-18 04:31:51.800,0.0,0.0,0.00767970935861945,0.0,0.0,0.0,-30.46882000033102,9.972973187939148,-18.943984376487357,0.051102931137794454,0.025425624151916338,-10.081246884837224
2024-06-18 04:31:51.900,0.0,0.0,0.007670150673357614,0.0,0.0,0.0,-30.322264854851714,10.494105504267669,-19.174688646707303,0.0640326054193254,0.007443043692040261,-10.133524773791649
2024-06-18 04:31:52.000,0.0,0.0,0.007667371094873592,0.0,0.0,0.0,-30.327368234705087,10.4260222565416,-18.889206211447135,0.07879477626435093,0.042835553176557434,-10.114609324822565
2024-06-18 04:31:52.100,0.0,0.0,0.007672004124485342,0.0,0.0,0.0,-30.22399574041548,10.528606629427305,-19.547862130813275,0.08738167446030147,0.0234089640561158,-10.181702434374783
2024-06-18 04:31:52.200,0.0,0.0,0.007680270172610893,0.0,0.0,0.0,-30.5471365191512,9.910640423172978,-19.23536211243201,0.10209527015942177,0.060837514262234674,-10.162993074414196
2024-06-18 04:31:52.300,0.0,0.0,0.007694488964833922,0.0,0.0,0.0,-30.458901513762225,9.898887657441318,-19.05071223950812,0.1163613175731856,0.043065725101049446,-10.215525864656453
2024-06-18 04:31:52.400,0.0,0.0,0.007709496709047527,0.0,0.0,0.0,-30.428799381548185,10.276546878626029,-19.3133278391559,0.1480538435219091,0.08782750104301378,-10.194259791122358
2024-06-18 04:31:52.500,0.0,0.0,0.007725052980827287,0.0,0.0,0.0,-30.578489956181656,9.676532107675778,-19.083857002194122,0.18550546590126615,0.08342069840161583,-10.247375805431984
2024-06-18 04:31:52.600,0.0,0.0,0.007745803864842115,0.0,0.0,0.0,-30.156472203766135,10.555366443580859,-19.34400003129674,0.2420243037265323,0.14101678384244729,-10.226737428917664
2024-06-18 04:31:52.700,0.0,0.0,0.007770747515660409,0.0,0.0,0.0,-30.321497026776836,10.504041320773688,-18.602382532728576,0.3054316730629404,0.14807513347398313,-10.279537520773184
2024-06-18 04:31:52.800,0.0,0.0,0.007788803976445616,0.0,0.0,0.0,-30.485284095290034,9.765266015383062,-18.853694183052426,0.38303970750313276,0.2230530135138511,-10.259311990302008
2024-06-18 04:31:52.900,0.0,0.0,0.007799554646372795,0.0,0.0,0.0,-30.567776612484735,10.003634660295385,-18.573956263813333,0.46161763796240357,0.2502746729140734,-10.314030412039717
2024-06-18 04:31:53.000,0.0,0.0,0.007807643466992082,0.0,0.0,0.0,-30.639816164438173,9.939668065927917,-19.262971538378114,0.5474994222088223,0.33347669078860476,-10.296314281885678
2024-06-18 04:31:53.100,0.0,0.0,0.007810153082696864,0.0,0.0,0.0,-30.707116834860155,9.58303315261691,-18.687668958810555,0.635355293272114,0.36890357595608214,-10.351058711126024
2024-06-18 04:31:53.200,0.0,0.0,0.007814812234843573,0.0,0.0,0.0,-30.62464733248555,9.853582817067004,-18.916379779239183,0.6869143803606774,0.4289700311407328,-10.331515890266962
2024-06-18 04:31:53.300,0.0,0.0,0.007822037053458944,0.0,0.0,0.0,-30.36577215115648,10.375564246982274,-18.822734080798412,0.6796241668495131,0.39940758118903175,-10.379429713437803
2024-06-18 04:31:53.400,0.0,0.0,0.007825462725841476,0.0,0.0,0.0,-30.487427334679275,10.198747991450514,-19.255105339561975,0.7229467242603201,0.4458412948375499,-10.351017190207173
2024-06-18 04:31:53.500,0.0,0.0,0.007826706978011399,0.0,0.0,0.0,-30.726283081133655,9.699017981608344,-18.9457354334364,0.7350471371404783,0.4312676049338597,-10.40935971529594
2024-06-18 04:31:53.600,0.0,0.0,0.007828833603532336,0.0,0.0,0.0,-30.712488619836567,9.664236463461279,-18.977830830649598,0.7536993066539202,0.4685633169674684,-10.390915215858533
2024-06-18 04:31:53.700,0.0,0.0,0.007831312919244422,0.0,0.0,0.0,-30.62880756075039,9.803124542899793,-18.5123249330819,0.7673124480640675,0.4556927763909591,-10.440419759401344
2024-06-18 04:31:53.800,0.0,0.0,0.007833741458166298,0.0,0.0,0.0,-30.56282827716253,10.294779628863793,-18.952333810429657,0.7794583057658677,0.4884363993953692,-10.4194291568942
2024-06-18 04:31:53.900,0.0,0.0,0.00783671012606051,0.0,0.0,0.0,-30.434906850656606,10.247943176761261,-19.113636200597355,0.7842883984195178,0.4681948038761796,-10.472132082351152
2024-06-18 04:31:54.000,0.0,0.0,0.00783673820610854,0.0,0.0,0.0,-30.786921202941805,9.884347314400147,-19.04760077567169,0.7970881335460867,0.4992187931451269,-10.449996624790217
2024-06-18 04:31:54.100,0.0,0.0,0.007833666803040859,0.0,0.0,0.0,-30.60645839728069,9.510799520220873,-19.279519501293507,0.8006558257244845,0.4799199136441178,-10.499989804923695
2024-06-18 04:31:54.200,0.0,0.0,0.007829640898025483,0.0,0.0,0.0,-31.164633710617807,9.822969278808515,-16.963504063454565,0.8107700196745053,0.5112357139799469,-10.479667679443896
2024-06-18 04:31:54.300,0.0,0.0,0.007823840675100493,0.0,0.0,0.0,-29.6922549348428,10.69791864095302,-14.352877696661647,0.811817269171391,0.4900285994195265,-10.536975909321647
2024-06-18 04:31:54.400,0.0,0.0,0.007817323051291738,0.0,0.0,0.0,-29.114173886379362,10.420430717846157,-19.789875146637197,0.7490498985989352,0.4585811465170413,-10.536543236340124
2024-06-18 04:31:54.500,0.0,0.0,0.007810324111598104,0.0,0.0,0.0,-29.59860201962925,10.417631688235058,-17.769964967629075,0.6235093602600784,0.3510797443477387,-10.62872222676529
2024-06-18 04:31:54.600,0.0,0.0,0.007801686617227903,0.0,0.0,0.0,-28.332494404446386,10.016300253205218,-19.635409561368057,0.5637382360958848,0.3303050803526856,-10.664783096662653
2024-06-18 04:31:54.700,0.0,0.0,0.007791685101386372,0.0,0.0,0.0,-28.917513716716766,10.561501395236988,-18.26677244020731,0.5636420449803121,0.30796136567273386,-10.748017378767315
2024-06-18 04:31:54.800,0.0,0.0,0.007780150615791318,0.0,0.0,0.0,-29.766034883421373,9.762488015968586,-19.178695941816116,0.574906809543146,0.3379350926793894,-10.735992736438966
2024-06-18 04:31:54.900,0.0,0.0,0.007766908327675303,0.0,0.0,0.0,-29.33278206078518,9.929345975818038,-17.857310961979085,0.5926473640989924,0.32529716280656107,-10.77966489677759
2024-06-18 04:31:55.000,0.0,0.0,0.007752231845553899,0.0,0.0,0.0,-28.536564619954103,9.456485634528157,-18.902041363793796,0.6191504716598459,0.36703761771847565,-10.759036448727569
2024-06-18 04:31:55.100,0.0,0.0,0.007736014818249171,0.0,0.0,0.0,-29.535169710810074,9.254176764358093,-17.96409462883518,0.6388217706311917,0.3591723848243396,-10.811222613406285
2024-06-18 04:31:55.200,0.0,0.0,0.00772180725504874,0.0,0.0,0.0,-28.9602004543018,9.876083366928686,-19.24667434655317,0.6708694335891646,0.4028335105795916,-10.79316866101609
2024-06-18 04:31:55.300,0.0,0.0,0.0077099826773824815,0.0,0.0,0.0,-29.523069364523202,9.732733252645419,-18.235781802031678,0.701849083552627,0.4013337856857994,-10.84447574159563
2024-06-18 04:31:55.400,0.0,0.0,0.0076987662963995,0.0,0.0,0.0,-29.54219357779941,9.417301004869891,-19.401800358368448,0.738192257927288,0.4488469745238297,-10.82694351540202
2024-06-18 04:31:55.500,0.0,0.0,0.007689180183293542,0.0,0.0,0.0,-29.764616071079185,9.066252117990453,-18.30733955853511,0.7620945696700249,0.44375394219703995,-10.87963522624074
2024-06-18 04:31:55.600,0.0,0.0,0.007679148530103587,0.0,0.0,0.0,-29.406197379560197,9.213419320568068,-19.618065450413628,0.782935759628823,0.4808603139423255,-10.869424982314479
2024-06-18 04:31:55.700,0.0,0.0,0.0076685595276288175,0.0,0.0,0.0,-29.359693099887814,9.983535574533207,-18.175866145348007,0.7934909457063006,0.4683719818627064,-10.923490567663524
2024-06-18 04:31:55.800,0.0,0.0,0.007659369325836602,0.0,0.0,0.0,-29.218102048161036,9.684101573336568,-20.078240636457558,0.8049035633397946,0.4969598915099039,-10.90532582123556
2024-06-18 04:31:55.900,0.0,0.0,0.007651179768186083,0.0,0.0,0.0,-29.60059194095964,9.309150922334712,-18.28062158506688,0.8105260526461969,0.4765427662481685,-10.956921097208518
2024-06-18 04:31:56.000,0.0,0.0,0.007652263085346501,0.0,0.0,-0.01530006428519985,-29.61786730962109,8.820585022341218,-19.909316528618845,0.8149862962732517,0.5025712494505578,-10.938335566301244
2024-06-18 04:31:56.100,0.0,0.0,0.007663787685896607,0.0,0.0,-0.04747505120577467,-29.450636718877423,9.682469366854896,-17.634749213451016,0.8150429553314396,0.48046020702611186,-10.988700312877237
2024-06-18 04:31:56.200,0.0,0.0,0.007681686918756867,0.0,0.0,-0.08937368791468703,-29.145927945559308,9.368392950546864,-20.41519569434035,0.8156178655643592,0.5032676602580441,-10.970694179517121
2024-06-18 04:31:56.300,0.0,0.0,0.0077085125725169035,0.0,0.0,-0.1454533472167387,-29.318007004819165,10.15580288417758,-17.473948731751996,0.8105191903835393,0.4778047481690545,-11.022195456920882
2024-06-18 04:31:56.400,0.0,0.0,0.00774012198287915,0.0,0.0,-0.20696075817224646,-29.15249020498948,9.32766250064646,-20.979290121631127,0.8063922453126622,0.4971891761176991,-11.003794024724758
2024-06-18 04:31:56.500,0.0,0.0,0.007776456202256457,0.0,0.0,-0.2736019481949782,-29.616834344326882,10.256555294530477,-16.111690092667693,0.7943107830461673,0.46774739588460484,-11.053812970412888
2024-06-18 04:31:56.600,0.0,0.0,0.007822008271874754,0.0,0.0,-0.35384045317793295,-31.084628658792333,10.079042962843372,-16.918482120684942,0.7597079505406957,0.4716517796585342,-11.026445831289871
2024-06-18 04:31:56.700,0.0,0.0,0.00787616143722485,0.0,0.0,-0.44612746139019194,-30.350459590305054,12.23594344658801,-3.414639875921455,0.7922984986498413,0.4664332993915291,-11.050750557981626
2024-06-18 04:31:56.800,0.0,0.0,0.007902016306382348,0.0,0.0,-0.5257329480581657,-30.152860417140296,13.286899428305297,1.6631827602202556,0.7548248723257249,0.4684985250914258,-11.016823307822406
2024-06-18 04:31:56.900,0.0,0.0,0.007896681658990908,0.0,0.0,-0.5915905682975374,-30.005348367078323,11.7605777608803,-5.27378678850619,0.7138421229102604,0.44400508156671714,-11.1369593472811
2024-06-18 04:31:57.000,0.0,0.0,0.007877320959103077,0.0,0.0,-0.6546266817466851,-30.22128604100377,12.481511215701513,-3.7538411522803163,0.6618895069708581,0.46611925281871164,-11.369439150792225
2024-06-18 04:31:57.100,0.0,0.0,0.007833664571432752,0.0,0.0,-0.7083439432851044,-30.51710116568244,12.48539774331005,-0.20286721201468544,0.6042039349109766,0.43089429175028,-12.019187219289682
2024-06-18 04:31:57.200,0.0,0.0,0.007788451227066327,0.0,0.0,-0.7696504095238297,-31.207802863068924,12.285826387322002,1.783830926401802,0.5900638489844984,0.4185351157786684,-12.691811106585805
2024-06-18 04:31:57.300,0.0,0.0,0.0077428497419581325,0.0,0.0,-0.8395991660971369,-30.21249281185856,11.181229193454218,-6.743172451005516,0.5173538413584989,0.3478025800597137,-13.374655038903548
2024-06-18 04:31:57.400,0.0,0.0,0.00767639273296471,0.0,0.0,-0.9042143211397252,-31.230359053520594,11.933989984423313,-4.892545945677434,0.5245643634649413,0.36023101079289377,-13.913848446259227
2024-06-18 04:31:57.500,0.0,0.0,0.007593551239689162,0.0,0.0,-0.9671057370229876,-30.021687195599082,12.276640249806563,-1.1533917486887115,0.531999356674023,0.32401912543979483,-14.366504653004604
2024-06-18 04:31:57.600,0.0,0.0,0.007549553336031582,0.0,0.0,-0.9809996887817399,-31.488987267802127,13.18898470948985,2.690717256535312,0.526229027461933,0.32648314981289506,-14.530881452724536
2024-06-18 04:31:57.700,0.0,0.0,0.007546941556834802,0.0,0.0,-0.9392139590888092,-30.42907084888653,10.872389715518613,-7.072891394543919,0.4204535479283364,0.2329013429321195,-14.710903768924279
2024-06-18 04:31:57.800,0.0,0.0,0.007562344557653325,0.0,0.0,-0.8661946312641524,-30.683075701170214,11.722634991710825,-3.122353078644992,0.3170036779228092,0.18858077265499368,-14.810992867224046
2024-06-18 04:31:57.900,0.0,0.0,0.0076105169286804445,0.0,0.0,-0.7475415320845102,-30.647199890046494,11.243147632232448,-3.9595181645519872,0.26661618957576144,0.1506846236356597,-14.956780513375463
2024-06-18 04:31:58.000,0.0,0.0,0.007653838588594525,0.0,0.0,-0.6066241312264844,-30.723304817293183,11.960970625597094,1.032112227238381,0.46679874976783786,0.3148665921786667,-15.071516073997532
2024-06-18 04:31:58.100,0.0,0.0,0.007690408068022492,0.0,0.0,-0.4441904886134238,-30.50031887076998,11.214458342134435,-2.966520078400443,0.4928427969786609,0.30996487454992455,-15.201962141699749
2024-06-18 04:31:58.200,0.0,0.0,0.007751825025183553,0.0,0.0,-0.23508313628708888,-30.670681496306834,11.681247269303126,-0.358717370177738,0.4604497979282511,0.26781498795922476,-15.319908392356188
2024-06-18 04:31:58.300,0.0,0.0,0.007830375011624034,0.0,0.0,0.016962549057358077,-30.812701964377183,11.451210482806477,-1.9273973041923573,0.478038058533542,0.25008457066380674,-15.531318203319929
2024-06-18 04:31:58.400,0.0,0.0,0.007879177475719862,0.0,0.0,0.17908370022189685,-30.935588702984063,11.948371858497053,-0.2399133360771269,0.4684134092281695,0.28360410828908056,-15.640863673142539
2024-06-18 04:31:58.500,0.0,0.0,0.007897790804501469,0.0,0.0,0.24250231840027295,-30.757481934217772,11.545291717033896,-1.9231696248232233,0.46683689205740203,0.27510942219326834,-15.794034235592376
2024-06-18 04:31:58.600,0.0,0.0,0.007903412857752593,0.0,0.0,0.26845224503976645,-30.858580195664697,11.383193777247406,0.27772775441761643,0.449966407445643,0.2916229102014401,-15.915344910401561
2024-06-18 04:31:58.700,0.0,0.0,0.007884046072580874,0.0,0.0,0.22075884493122225,-30.67024167252342,11.168081526496612,-1.957815676203532,0.45563310673861673,0.2747763217994148,-16.107933114599497
2024-06-18 04:31:58.800,0.0,0.0,0.00787535105519229,0.0,0.0,0.18414388957442882,-30.885373290056236,11.631189651297406,0.09758218287271085,0.4423492552122457,0.2871279405498808,-16.23517304087528
2024-06-18 04:31:58.900,0.0,0.0,0.007878963533531359,0.0,0.0,0.16348305012335976,-30.728757621708038,11.614409494373248,-1.663094456422704,0.4288627756945724,0.2661048653239699,-16.41468011406418
2024-06-18 04:31:59.000,0.0,0.0,0.0078668689115481,0.0,0.0,0.0848902807944989,-30.87132616302704,11.447274748190589,-0.08079812181247208,0.4070987087410809,0.28695509876393804,-16.444371460085716
2024-06-18 04:31:59.100,0.0,0.0,0.007846575821785067,0.0,0.0,-0.03433849569349513,-30.972135112570342,11.431725945544454,-1.4002865537171005,0.4147036342226802,0.2879966743544636,-16.49289464120003
2024-06-18 04:31:59.200,0.0,0.0,0.007815516685710169,0.0,0.0,-0.009895035638059211,-30.931233520213805,11.305069036194533,1.011067864201174,0.3782807613988827,0.2990617605448869,-16.48073677507818
2024-06-18 04:31:59.300,0.0,0.0,0.00776992019306103,0.0,0.0,0.16653806711099536,-30.62449632597168,10.578220383189368,-6.738162627782117,0.4170094458601974,0.30549738530765647,-16.53920831214637
2024-06-18 04:31:59.400,0.0,0.0,0.007715919649518358,0.0,0.0,0.4190719019185134,-29.619731757774254,9.515713907126234,-18.547058187885977,0.13952698198623267,0.09509842148173035,-16.40619714939343
2024-06-18 04:31:59.500,0.0,0.0,0.007651620050278022,0.0,0.0,0.7971762716627204,-29.35233190790769,8.500244664078277,-17.51369501280221,-0.0710562448180048,-0.2836693660253644,-16.033776889522418
2024-06-18 04:31:59.600,0.0,0.0,0.0075709491347070446,0.0,0.0,1.1746508627192458,-29.5680384312274,8.855696353215542,-17.760683375580978,0.08504439610786342,-0.4307739420192142,-15.514557763773519
2024-06-18 04:31:59.700,0.0,0.0,0.007473749447903511,0.0,0.0,1.5457978438880142,-30.325296629014293,9.482842179341825,-17.242280044621385,0.05691769693165993,-0.5248136253997822,-15.001520752664666
2024-06-18 04:31:59.800,0.0,0.0,0.007360855025027032,0.0,0.0,2.016905043431921,-30.17372294744715,9.460028211433883,-16.97617152455371,0.10011067122089733,-0.46151101244446846,-14.443421025214056
2024-06-18 04:31:59.900,0.0,0.0,0.007230470043661166,0.0,0.0,2.5625098794480197,-30.158234043950173,9.721536068663404,-17.14285607286157,0.05827026738582628,-0.3823850256373442,-13.925147184420323
2024-06-18 04:32:00.000,0.0,0.0,0.00717283119510311,0.0,0.0,2.8327879970545973,-30.062744587575466,9.820171986532086,-16.83161844341831,0.08871721947195942,-0.191108406510999,-13.352744827073721
2024-06-18 04:32:00.100,0.0,0.0,0.0071964293596089,0.0,0.0,2.80678596506459,-30.080598888093732,9.999704445270511,-17.016979400570868,0.11765077234220951,-0.018509377131801424,-12.82655224038413
2024-06-18 04:32:00.200,0.0,0.0,0.007257127966461729,0.0,0.0,2.632839710050096,-30.023394451910256,10.08006320569081,-16.710604531358378,0.2593410378440325,0.0799777434265871,-12.452067147558399
2024-06-18 04:32:00.300,0.0,0.0,0.007380476631186365,0.0,0.0,2.2148878607782807,-30.002090210210866,10.138808630320515,-16.99322433505079,0.36220884906039164,0.10464533178868152,-12.23559812479341
2024-06-18 04:32:00.400,0.0,0.0,0.007514234345005701,0.0,0.0,1.783488407468407,-29.94974043350861,10.237211298498552,-16.81544057601297,0.42092548327532975,0.2431559581853498,-11.905018892288965
2024-06-18 04:32:00.500,0.0,0.0,0.00765559553319443,0.0,0.0,1.3482653507840354,-29.928710680380203,10.339253573187538,-17.040355365291667,0.35624715818803177,0.17985241988500414,-11.716751887557812
2024-06-18 04:32:00.600,0.0,0.0,0.00785349754352641,0.0,0.0,0.70884366600784,-29.88685894576989,10.35617598805099,-16.75776555705424,0.2791456862947609,0.13596069008644387,-11.532089619869563
2024-06-18 04:32:00.700,0.0,0.0,0.008097886840294671,0.0,0.0,-0.08960569427697489,-29.868176210939538,10.375840758777294,-16.99052101988492,0.21719218406831342,0.07652937300973127,-11.469044878044121
2024-06-18 04:32:00.800,0.0,0.0,0.00823740428983857,0.0,0.0,-0.5864709766493323,-29.843799528239735,10.371302348984827,-16.626367443542875,0.22858256634218757,0.10511968570243152,-11.403049342919532
2024-06-18 04:32:00.900,0.0,0.0,0.008264345799897219,0.0,0.0,-0.7643879110915002,-29.850022872441883,10.415541335036162,-16.98397902078983,0.26072493998914636,0.10050976119399678,-11.431941305613758
2024-06-18 04:32:01.000,0.0,0.0,0.008244341102939682,0.0,0.0,-0.8134807728491192,-29.865601078632537,10.423890759842147,-16.705411344033873,0.3059004675656228,0.1585666137727955,-11.41982466279744
2024-06-18 04:32:01.100,0.0,0.0,0.008136797330216362,0.0,0.0,-0.6120280083254516,-29.887166640293238,10.383682262977448,-16.906717345235588,0.34557027669657603,0.1753675062408681,-11.466534288669273
2024-06-18 04:32:01.200,0.0,0.0,0.008043015693463483,0.0,0.0,-0.48300608710700893,-29.893674389342614,10.365250346040167,-16.667515501094258,0.41623561447052393,0.25038104105150966,-11.45447974642229
2024-06-18 04:32:01.300,0.0,0.0,0.007968342028178964,0.0,0.0,-0.44281350534075165,-29.913762729662796,10.380210627822226,-16.894948406200367,0.42263778443291816,0.2332232695903147,-11.496465127588921
2024-06-18 04:32:01.400,0.0,0.0,0.007826921503559917,0.0,0.0,-0.22516041710644208,-29.874067482040836,10.416654479624665,-16.810404606992222,0.4177328956974682,0.24615105362189676,-11.471452167527032
2024-06-18 04:32:01.500,0.0,0.0,0.007639537425023704,0.0,0.0,0.10293844564372327,-29.89816878218291,10.38794354689357,-16.93084311497237,0.426985713250297,0.2331062015493219,-11.512723340928046
2024-06-18 04:32:01.600,0.0,0.0,0.007530425660458425,0.0,0.0,0.2748435531070404,-29.871996420122645,10.402283199164472,-16.850054902676877,0.43360150481636,0.25722348833369624,-11.497660095757668
2024-06-18 04:32:01.700,0.0,0.0,0.00750037081193195,0.0,0.0,0.2988912557078682,-29.88661125989569,10.405915568236242,-16.97133510195687,0.43891104674137865,0.24129919321463977,-11.543531571451883
2024-06-18 04:32:01.800,0.0,0.0,0.007503945393879921,0.0,0.0,0.2576267066458533,-29.8688440022921,10.384245885512113,-16.727475325367756,0.44296565674048394,0.2623927086716958,-11.530341543892183
2024-06-18 04:32:01.900,0.0,0.0,0.007572754417378499,0.0,0.0,0.0863630465624426,-29.885558497236108,10.416566049893197,-16.987767077446293,0.44294570061310734,0.24176212816831855,-11.57653264554733
2024-06-18 04:32:02.000,0.0,0.0,0.007611733210799042,0.0,0.0,0.01091648805333279,-29.83006785182987,10.416969805136729,-16.862261880840478,0.44768394789769905,0.2632736752513591,-11.562865578274556
2024-06-18 04:32:02.100,0.0,0.0,0.007616404992841998,0.0,0.0,0.04119440331487791,-29.855726105195334,10.419287894310795,-17.043179582269115,0.4468428023247763,0.24369244237651208,-11.609013115921892
2024-06-18 04:32:02.200,0.0,0.0,0.007661005686914787,0.0,0.0,0.011045299810634623,-29.875640919252234,10.334014021686784,-16.698532080972637,0.4512875166044583,0.2642967818612905,-11.595636383229953
2024-06-18 04:32:02.300,0.0,0.0,0.007725389061977154,0.0,0.0,-0.03056352916812155,-29.86493975904592,10.416138246809444,-16.882370360006625,0.45000605187817505,0.24466574343906544,-11.6409488931904
2024-06-18 04:32:02.400,0.0,0.0,0.007759450476023735,0.0,0.0,-0.04908620834300862,-29.860965928583795,10.455137380077012,-16.867086879565328,0.4538266223244723,0.2647012703924314,-11.62724728928025
2024-06-18 04:32:02.500,0.0,0.0,0.0077671772462242486,0.0,0.0,-0.059228089782743215,-29.813873455802035,10.453907231653805,-17.21238416579573,0.44813796058613586,0.24364548070088599,-11.672716087198989
2024-06-18 04:32:02.600,0.0,0.0,0.007758605236367613,0.0,0.0,-0.04278325637518951,-29.813311723513337,10.49781434940969,-17.090324114155777,0.4489288860475639,0.26296948596411485,-11.65923325815386
2024-06-18 04:32:02.700,0.0,0.0,0.007722048673937788,0.0,0.0,0.005686058548738826,-29.842505738542915,10.484431419151477,-17.172065947141903,0.4440997151395741,0.24209959979445395,-11.705055644264265
2024-06-18 04:32:02.800,0.0,0.0,0.007705942503367548,0.0,0.0,0.02399563205474675,-29.82075831530726,10.439609233153547,-17.014814279971194,0.44555391939787425,0.2616001077084069,-11.691615127119679
2024-06-18 04:32:02.900,0.0,0.0,0.007711608263661097,0.0,0.0,0.013280685874856084,-29.79759077059396,10.492919262344813,-17.298864956891855,0.4407550038020799,0.24093385852642007,-11.737098997069582
2024-06-18 04:32:03.000,0.0,0.0,0.0077052381332515405,0.0,0.0,0.008614311984076885,-29.808339973043605,10.451971660336035,-16.927353518625797,0.44251318910572973,0.2610185834776334,-11.723252741415793
2024-06-18 04:32:03.100,0.0,0.0,0.00769716579892138,0.0,0.0,-0.0029530872145786956,-29.847881338756622,10.436726016764066,-17.000010582647903,0.4388041220331884,0.24074259615371937,-11.768311460114703
2024-06-18 04:32:03.200,0.0,0.0,0.007692895628841197,0.0,0.0,-0.007488683806522526,-29.85360162434954,10.339919473076527,-16.66722551142115,0.44041987017143364,0.25957366268708304,-11.754521312903178
2024-06-18 04:32:03.300,0.0,0.0,0.007689457575366153,0.0,0.0,-0.0010454533948543398,-29.8435812459787,10.40115794378476,-16.880933303779305,0.4347965537902949,0.23830067164129992,-11.799553255215615
2024-06-18 04:32:03.400,0.0,0.0,0.007691560963200903,0.0,0.0,0.00023652683396143868,-29.780680275969026,10.42687086464231,-16.837598324301805,0.43231004125415984,0.25388636342984494,-11.784706479218826
2024-06-18 04:32:03.500,0.0,0.0,0.007700017235843804,0.0,0.0,0.00026280876675735786,-29.762299928345332,10.509125554356471,-17.14242593680377,0.4207151521325893,0.22763382436291532,-11.828573211846217
2024-06-18 04:32:03.600,0.0,0.0,0.007702779980453859,0.0,0.0,0.000814166497765965,-29.737896134523194,10.474835765398257,-17.023154106801023,0.4091627087353592,0.23490426164126207,-11.81447932277424
2024-06-18 04:32:03.700,0.0,0.0,0.0077002574867115255,0.0,0.0,-4.816540049535421e-05,-29.758565808914284,10.440560112135735,-17.019096631389843,0.39087267720722557,0.20228621567246655,-11.858721084718958
2024-06-18 04:32:03.800,0.0,0.0,0.007699111636169875,0.0,0.0,-0.00023221397942479175,-29.72183562449168,10.541607684441233,-17.10081354664387,0.39456114128550446,0.21991276006317384,-11.846510624930916
2024-06-18 04:32:03.900,0.0,0.0,0.00769691647872215,0.0,0.0,5.1190955606747544e-05,-29.764457390964044,10.451868880323888,-17.010859548270016,0.4070588839901785,0.20727747951858125,-11.891811524206103
2024-06-18 04:32:04.000,0.0,0.0,0.007695998177937735,0.0,0.0,2.6415516852130895e-05,-29.799211203223567,10.382601962092089,-16.68100349825461,0.4391844277010339,0.24147967416526925,-11.879420056205145
2024-06-18 04:32:04.100,0.0,0.0,0.007697101577565844,0.0,0.0,-8.513084150506875e-06,-29.806792415442352,10.37292937353593,-16.854654373604145,0.4796377577007493,0.24504663432297882,-11.9258505591627
2024-06-18 04:32:04.200,0.0,0.0,0.007697385145162081,0.0,0.0,0.0,-29.810275285072336,10.36641852496303,-16.683032551611426,0.5324666340792203,0.2959145814683534,-11.914400473083669
2024-06-18 04:32:04.300,0.0,0.0,0.007697522649137121,0.0,0.0,0.0,-29.819241932159702,10.44206992698668,-16.92532128067636,0.5761157094508305,0.3107038063510213,-11.9602901240895
2024-06-18 04:32:04.400,0.0,0.0,0.007698176162573586,0.0,0.0,0.0,-29.824252498185754,10.383543133564164,-16.77545120729987,0.6212448595287541,0.3604707306517227,-11.94881639639799
2024-06-18 04:32:04.500,0.0,0.0,0.007699034650001243,0.0,0.0,0.0,-29.7954932491323,10.417999857827304,-17.09043691057044,0.6552659176281191,0.3690149481844316,-11.995079286801007
2024-06-18 04:32:04.600,0.0,0.0,0.007700297071081268,0.0,0.0,0.0,-29.82074934804836,10.397821936259842,-16.919317831355972,0.6901085659925634,0.4112532487049605,-11.982855581858807
2024-06-18 04:32:04.700,0.0,0.0,0.007702023372032983,0.0,0.0,0.0,-29.864984601429857,10.355095784389043,-16.87282945012747,0.7046871596531006,0.4045000077325287,-12.030449605464007
2024-06-18 04:32:04.800,0.0,0.0,0.007702915962517988,0.0,0.0,0.0,-29.800317554485662,10.404849469952877,-16.969838278366396,0.7091970924838596,0.4237731969026289,-12.018869510537739
2024-06-18 04:32:04.900,0.0,0.0,0.007702917016306815,0.0,0.0,0.0,-29.81903356795284,10.390709859902133,-17.020945815658703,0.7093786287304661,0.40617915541794064,-12.0626192920819
2024-06-18 04:32:05.000,0.0,0.0,0.007702671189880928,0.0,0.0,0.0,-29.85419553165333,10.348404696668052,-16.754123976772558,0.7130087460364147,0.4230847568749785,-12.050648956171555
2024-06-18 04:32:05.100,0.0,0.0,0.0077018503364202524,0.0,0.0,0.0,-29.827887051755837,10.391513304715135,-16.9053457309588,0.7135357423057888,0.40630526620134405,-12.095193664300327
2024-06-18 04:32:05.200,0.0,0.0,0.0077011130695321455,0.0,0.0,0.0,-29.837023171025056,10.356522412887895,-16.736831768044375,0.7228100768265088,0.42787639076345885,-12.083503913842385
2024-06-18 04:32:05.300,0.0,0.0,0.0077005183462508005,0.0,0.0,0.0,-29.838996411585775,10.421678731631934,-16.955741577931672,0.7327619888139127,0.41924241642533755,-12.128252065286434
2024-06-18 04:32:05.400,0.0,0.0,0.007699463902787713,0.0,0.0,0.0,-29.82378153551756,10.370516260597869,-16.803656343147487,0.7456946269775514,0.4445491227363325,-12.117951595267208
2024-06-18 04:32:05.500,0.0,0.0,0.007698091173772975,0.0,0.0,0.0,-29.818885850922943,10.398846363493481,-16.9187708811439,0.7449246871285266,0.4275821848659571,-12.164765964787273
2024-06-18 04:32:05.600,0.0,0.0,0.007697374821782702,0.0,0.0,0.0,-29.828934143794527,10.351097387068796,-16.835383076352812,0.7512932851750717,0.44769063840650525,-12.152606497813489
2024-06-18 04:32:05.700,0.0,0.0,0.0076973294703565525,0.0,0.0,0.0,-29.836524441994033,10.370114183515357,-16.863674806373698,0.7544001494317595,0.4333194174770331,-12.197048613170184
2024-06-18 04:32:05.800,0.0,0.0,0.007697587273277529,0.0,0.0,0.0,-29.82531196858908,10.393532718795575,-16.937221663314823,0.738578361558686,0.4404666437644843,-12.184779216165607
2024-06-18 04:32:05.900,0.0,0.0,0.0076983988362097295,0.0,0.0,0.0,-29.80992298537714,10.44850971740776,-17.13898002194579,0.7044308977313681,0.404065793527419,-12.229961598208382
2024-06-18 04:32:06.000,0.0,0.0,0.007699049952235833,0.0,0.0,0.0,-29.82012032652281,10.38761499587381,-16.90898098457959,0.6815752090318365,0.4059864988315824,-12.217979459867506
2024-06-18 04:32:06.100,0.0,0.0,0.007699507440865154,0.0,0.0,0.0,-29.83972560983279,10.367354349215423,-16.810592914024358,0.6540159712536193,0.3738062099280469,-12.262637733618206
2024-06-18 04:32:06.200,0.0,0.0,0.007700341934570168,0.0,0.0,0.0,-29.823521357853664,10.362505684175858,-16.781649718297626,0.6353927822338535,0.37853428554776253,-12.249959690284097
2024-06-18 04:32:06.300,0.0,0.0,0.007701404270162105,0.0,0.0,0.0,-29.813034149892687,10.420375656959388,-17.020158234288395,0.6128798491702104,0.3493284084361805,-12.293864311694893
2024-06-18 04:32:06.400,0.0,0.0,0.00770195542143774,0.0,0.0,0.0,-29.803592247898703,10.371319637556738,-16.895748599392068,0.5981171831421469,0.35593164823496865,-12.28123149122745
2024-06-18 04:32:06.500,0.0,0.0,0.007701992917099575,0.0,0.0,0.0,-29.803728807814135,10.412781979373536,-16.980688047954438,0.5794086150363768,0.3289260606375113,-12.325107405603601
2024-06-18 04:32:06.600,0.0,0.0,0.007701766030481917,0.0,0.0,0.0,-29.7713614300403,10.436827612139002,-17.065780546934516,0.5677696866634052,0.33768305310624863,-12.312787911780152
2024-06-18 04:32:06.700,0.0,0.0,0.007701084677828725,0.0,0.0,0.0,-29.778468766165144,10.459850170296239,-17.230529007855047,0.5520094361181118,0.3123193835026535,-12.357135874782768
2024-06-18 04:32:06.800,0.0,0.0,0.007700527209963951,0.0,0.0,0.0,-29.74055993271339,10.501098387174363,-17.217129190146572,0.5418999149834394,0.32158645667159286,-12.343925420947707
2024-06-18 04:32:06.900,0.0,0.0,0.0077001146125424795,0.0,0.0,0.0,-29.771462804536537,10.405794179949375,-17.0353870871744,0.5262052577659518,0.2960313214275642,-12.387172887467091
2024-06-18 04:32:07.000,0.0,0.0,0.0076993943786225275,0.0,0.0,0.0,-29.72876242988979,10.504928454379872,-17.16129025336304,0.5145369086247291,0.3036222858658525,-12.374475322704157
2024-06-18 04:32:07.100,0.0,0.0,0.007698485519505628,0.0,0.0,0.0,-29.78125858374811,10.41077966569335,-16.86887715114156,0.49650290208144743,0.27508005850180567,-12.417506055984074
2024-06-18 04:32:07.200,0.0,0.0,0.007697928426055354,0.0,0.0,0.0,-29.75944680926135,10.362520357155496,-16.66754228447733,0.48026561175086435,0.27804294204231106,-12.405073087361997
2024-06-18 04:32:07.300,0.0,0.0,0.0076977205281822956,0.0,0.0,0.0,-29.738265622017114,10.444310920295559,-16.891442868051737,0.45531933005718905,0.2442301708204773,-12.448180837769865
2024-06-18 04:32:07.400,0.0,0.0,0.007697685324055087,0.0,0.0,0.0,-29.70418391245513,10.479976908705229,-16.877492739156235,0.431543209101438,0.2416278981863239,-12.43626409158846
2024-06-18 04:32:07.500,0.0,0.0,0.007697960361670078,0.0,0.0,0.0,-29.706577938552375,10.550376285322479,-17.044817253493907,0.40953494230359533,0.21000252388127139,-12.479805822378168
2024-06-18 04:32:07.600,0.0,0.0,0.007698110056703786,0.0,0.0,0.0,-29.72223284152148,10.476340916866844,-16.93851028485694,0.41130987287879556,0.2223774358933963,-12.467473284669033
2024-06-18 04:32:07.700,0.0,0.0,0.007698118353428862,0.0,0.0,0.0,-29.73725234778608,10.4936732696812,-17.118275176535445,0.41741350973061336,0.20753668890567176,-12.512024089419528
2024-06-18 04:32:07.800,0.0,0.0,0.007698320406755502,0.0,0.0,0.0,-29.714656886245027,10.453919569335968,-17.135726216352786,0.43960523184682615,0.23252155006139164,-12.501830016806137
2024-06-18 04:32:07.900,0.0,0.0,0.007698625600829869,0.0,0.0,0.0,-29.72287521591345,10.440137289104538,-17.057000926766577,0.4571638767099835,0.22883175831392688,-12.546853311568428
2024-06-18 04:32:08.000,0.0,0.0,0.007699273091212687,0.0,0.0,0.0,-29.743635872278634,10.45310426404025,-17.03698130326164,0.4756247877664376,0.2568586607938399,-12.536602646779995
2024-06-18 04:32:08.100,0.0,0.0,0.007700329164628082,0.0,0.0,0.0,-29.788385040234935,10.378188693817467,-16.892433381445993,0.4832239043410689,0.24784996083885402,-12.581691581560541
2024-06-18 04:32:08.200,0.0,0.0,0.0077016227811849,0.0,0.0,0.0,-29.789037605764996,10.3623113974003,-16.8170008710963,0.4893756668112055,0.2680019202463448,-12.56998652728638
2024-06-18 04:32:08.300,0.0,0.0,0.007703237112101391,0.0,0.0,0.0,-29.775063388991647,10.454333532848167,-16.91063145069215,0.48676454290198334,0.2507743689379591,-12.613671132656487
2024-06-18 04:32:08.400,0.0,0.0,0.007705127431953828,0.0,0.0,0.0,-29.733442047034195,10.45580698748502,-17.086890197700697,0.48535226357008276,0.26374471958148377,-12.601800020567213
2024-06-18 04:32:08.500,0.0,0.0,0.007707291604612784,0.0,0.0,0.0,-29.748273074702226,10.515879435306791,-17.220521549989193,0.47174279948798703,0.24013750306598466,-12.645725733274185
2024-06-18 04:32:08.600,0.0,0.0,0.007709833733487459,0.0,0.0,0.0,-29.757513278723916,10.42959668245007,-17.005171673186464,0.45837684645975085,0.24700116804959185,-12.633996795116413
2024-06-18 04:32:08.700,0.0,0.0,0.007712754585663949,0.0,0.0,0.0,-29.71158744211272,10.540211144051618,-17.297968975950976,0.44278781914186394,0.22269205880467005,-12.677674060140538
2024-06-18 04:32:08.800,0.0,0.0,0.007712403445022556,0.0,0.0,0.0,-29.76055139285576,10.413049432702248,-16.95514080889948,0.4313698185215588,0.23044654443763873,-12.666075808094911
2024-06-18 04:32:08.900,0.0,0.0,0.007708434102677562,0.0,0.0,0.0,-29.800958582835843,10.386597487951367,-16.80620324547389,0.41742335513778966,0.20688630710956987,-12.710008955453478
2024-06-18 04:32:09.000,0.0,0.0,0.007702568000567623,0.0,0.0,0.0,-29.78037992264624,10.355343433713866,-16.785916223024564,0.40801453665947324,0.21572181765229337,-12.698442883217954
2024-06-18 04:32:09.100,0.0,0.0,0.007693760024811245,0.0,0.0,0.0,-29.80280567788841,10.352722993123592,-16.79895936622805,0.397439849551481,0.1942259918316865,-12.74251722645153
2024-06-18 04:32:09.200,0.0,0.0,0.007684143385836127,0.0,0.0,0.0,-29.774168346480906,10.41618171738602,-16.883376217007573,0.39167529799886736,0.2058469564511295,-12.732129408565074
2024-06-18 04:32:09.300,0.0,0.0,0.007673808939370346,0.0,0.0,0.0,-29.799476734503365,10.397862699139228,-16.84403115789621,0.3863531686092303,0.188975186338524,-12.775860000541854
2024-06-18 04:32:09.400,0.0,0.0,0.007660745047239394,0.0,0.0,0.0,-29.79641074928545,10.344633407291349,-16.881639421824488,0.3789668812385755,0.19781294935963878,-12.767708197495438
2024-06-18 04:32:09.500,0.0,0.0,0.007645347258984978,0.0,0.0,0.0,-29.774139596178124,10.432376077874672,-17.09145094793916,0.3444146150794575,0.15696107510969837,-12.816337359481475
2024-06-18 04:32:09.600,0.0,0.0,0.007643333602050683,0.0,0.0,0.0,-29.803475522589867,10.350352859878312,-16.828358816922318,0.3272590246128158,0.1582598677472642,-12.80457131724658
2024-06-18 04:32:09.700,0.0,0.0,0.0076559869925451034,0.0,0.0,0.0,-29.797248038347544,10.394974199615518,-16.965278601163867,0.3104876834307687,0.13185856386402003,-12.84820869616017
2024-06-18 04:32:09.800,0.0,0.0,0.007676146320749045,0.0,0.0,0.0,-29.784461600199958,10.37301961012082,-16.864469023465446,0.29660462340956856,0.13644234736447838,-12.836546242898788
2024-06-18 04:32:09.900,0.0,0.0,0.0077082369750449105,0.0,0.0,0.0,-29.823008726499467,10.377798720775994,-16.790733557550855,0.2775778450674398,0.10809647345184235,-12.879786171801689
2024-06-18 04:32:10.000,0.0,0.0,0.007742637548320662,0.0,0.0,0.0,-29.7857875166288,10.344416720757962,-16.781064586572647,0.2648575576385182,0.11319966991387259,-12.86781882941476
2024-06-18 04:32:10.100,0.0,0.0,0.007778930276743018,0.0,0.0,0.0,-29.816013872746172,10.378247510259683,-16.845885558367954,0.25032518640192225,0.08821368349572166,-12.91069492953644
2024-06-18 04:32:10.200,0.0,0.0,0.007825892063841978,0.0,0.0,0.0,-29.793969687376176,10.389242364005877,-16.90376407009415,0.24005691629196746,0.09432766198655791,-12.898429781551597
2024-06-18 04:32:10.300,0.0,0.0,0.007881690563175019,0.0,0.0,0.0,-29.80325811329201,10.390864672955786,-16.774608899694414,0.22833423476298817,0.07118005246180856,-12.942182266565181
2024-06-18 04:32:10.400,0.0,0.0,0.007893289013321083,0.0,0.0,0.0,-29.788200747224433,10.362852010327055,-16.933628336739766,0.21905597637234217,0.07757684192366804,-12.930749252173417
2024-06-18 04:32:10.500,0.0,0.0,0.007856627984730245,0.0,0.0,0.0,-29.802505525400566,10.405277058353043,-16.868086717735398,0.21837069071817708,0.06441795340192166,-12.973829147787013
2024-06-18 04:32:10.600,0.0,0.0,0.007795562045037059,0.0,0.0,0.0,-29.808849027727437,10.344767017899283,-16.75388870969192,0.24155505310354264,0.09717647478760534,-12.96158619766865
2024-06-18 04:32:10.700,0.0,0.0,0.007695257767073321,0.0,0.0,0.0,-29.79114147092471,10.419197149971328,-16.89739580501811,0.2562397369437586,0.09603041645493866,-13.005152500122882
2024-06-18 04:32:10.800,0.0,0.0,0.007588736323590126,0.0,0.0,0.0,-29.782982370772768,10.355659099257474,-16.809501893668205,0.2745364159112672,0.12534988885818077,-12.993211452563788
2024-06-18 04:32:10.900,0.0,0.0,0.007477446728712919,0.0,0.0,0.0,-29.792471478225497,10.398322396734633,-16.771832413700835,0.2862923806957302,0.12151380050504977,-13.036185044846741
2024-06-18 04:32:11.000,0.0,0.0,0.007331633372517887,0.0,0.0,0.0,-29.7759756757451,10.349538302231162,-16.7717226093537,0.30110718103298084,0.1472361581981112,-13.024414223994093
2024-06-18 04:32:11.100,0.0,0.0,0.007157647760807494,0.0,0.0,0.0,-29.768315661588545,10.415264463202218,-16.818347116560687,0.307881178565164,0.13925469057435597,-13.066690298153576
2024-06-18 04:32:11.200,0.0,0.0,0.007112370525076443,0.0,0.0,0.0,-29.75252279746142,10.404346267198177,-16.865212198122776,0.316994851100751,0.1604613404452041,-13.054550754924657
2024-06-18 04:32:11.300,0.0,0.0,0.007207285295544574,0.0,0.0,0.0,-29.760748351571944,10.405561881495835,-16.775911285328238,0.3163545744183096,0.14636215747142203,-13.09781085692167
2024-06-18 04:32:11.400,0.0,0.0,0.007372400431021763,0.0,0.0,0.0,-29.71473201459946,10.378327207970024,-16.870443385224057,0.31583430721570216,0.1589561196525794,-13.085284842658846
2024-06-18 04:32:11.500,0.0,0.0,0.007651395204038483,0.0,0.0,0.0,-29.708152835820417,10.480901101515716,-16.85264283116811,0.3028755811832525,0.13436021058469125,-13.128555938008603
2024-06-18 04:32:11.600,0.0,0.0,0.007945525902319835,0.0,0.0,0.0,-29.675821293894664,10.409397309052085,-16.833299616992083,0.2910924434773092,0.13995403942147178,-13.117104093977307
2024-06-18 04:32:11.700,0.0,0.0,0.00825041953218567,0.0,0.0,0.0,-29.6474888708557,10.545312998885578,-17.060749836291855,0.2692856927601334,0.11215438991713207,-13.160157710448562
2024-06-18 04:32:11.800,0.0,0.0,0.008654348298543868,0.0,0.0,0.0,-29.720729085056657,10.43402124104707,-16.789082123544745,0.2639550469705899,0.121569680857452,-13.148702889124555
2024-06-18 04:32:11.900,0.0,0.0,0.00913819251926749,0.0,0.0,0.0,-29.730286008797272,10.376965647175332,-16.698887128704044,0.27360763850385983,0.11197019724772542,-13.192576422240856
2024-06-18 04:32:12.000,-1.919133601131007e-06,0.0,0.009291768249131235,0.0,0.0,0.0,-29.70268679779971,10.375243690344787,-16.91819043946508,0.3036315703623594,0.14194896215961966,-13.182384467963688
2024-06-18 04:32:12.100,-5.954940076464339e-06,0.0,0.0090865300382224,0.0,0.0,0.0,-29.75297326423953,10.406570366533934,-16.70479175725363,0.3455717676498956,0.15040421280182414,-13.227582454877862
2024-06-18 04:32:12.200,-1.1210413520941078e-05,0.0,0.008703975880838754,0.0,0.0,0.0,-29.7383307601746,10.405373785021851,-17.124864131374444,0.40316350003832885,0.20277488122689602,-13.21828014413856
2024-06-18 04:32:12.300,-1.82446557633514e-05,0.0,0.008030474545808177,0.0,0.0,0.0,-29.72339565730695,10.530444203630452,-17.01398666231632,0.45110630317668143,0.2297243624038441,-13.263247261447615
2024-06-18 04:32:12.400,-2.595971740511669e-05,0.0,0.007327184349305363,0.0,0.0,0.0,-29.731189091015885,10.45086612736118,-17.216060550054408,0.5096326698866008,0.28804141715552617,-13.25282629272067
2024-06-18 04:32:12.500,-3.431872457057646e-05,0.0,0.006605818892613436,0.0,0.0,0.0,-29.747299725599444,10.413620759865255,-16.939132962728344,0.5289888710538122,0.2912442142980569,-13.297547537513957
2024-06-18 04:32:12.600,-4.438328431012366e-05,0.0,0.005634905828197435,0.0,0.0,0.0,-29.72529367616338,10.448381287549793,-16.991414318295494,0.5134506626527041,0.2914689809366577,-13.284456915414875
2024-06-18 04:32:12.700,-5.595912445736564e-05,0.0,0.0044653893638768516,0.0,0.0,0.0,-29.735304230198302,10.509505670904181,-16.940545789440375,0.5160481100196497,0.28201816385923373,-13.32596508456907
2024-06-18 04:32:12.800,-0.00031393473023490486,0.00029222000857404446,0.004018319245501063,0.0,0.0,0.0,-29.751858792251348,10.448149613788734,-16.98786805032944,0.5201338138921633,0.2992307482923715,-13.315289648076455
2024-06-18 04:32:12.900,-0.0008437023719882513,0.0009067386653940104,0.004353111988816931,0.0,0.0,0.0,-29.756534787854473,10.425885119144677,-16.789483180684318,0.5209529056995408,0.2864634555762252,-13.3587217313415
2024-06-18 04:32:13.000,-0.001530721471547818,0.0017069719029865291,0.0050670405505013555,0.0,0.0,0.0,-29.805951296751445,10.345169368043951,-16.667845319018966,0.5284790161612393,0.3048811820035916,-13.347728399473874
2024-06-18 04:32:13.100,-0.0024464241864918957,0.0027780522734087098,0.006413453580968063,0.0,0.0,0.0,-29.754122298199896,10.43970612272563,-16.795003547752593,0.5338364486087835,0.29690164990059326,-13.390906800415944
2024-06-18 04:32:13.200,-0.003451054322496164,0.003952798720335223,0.007796504971787775,0.0,0.0,0.0,-29.666668271842507,10.007455252641567,-16.663806770213967,0.5405286368398785,0.3149466973401357,-13.380492802281475
2024-06-18 04:32:13.300,-0.004539979129014541,0.00522559658293406,0.009189029898830766,0.0,0.0,0.0,-29.675084385180146,9.757064165761063,-16.303588589453735,0.5375881829843048,0.29998126407245707,-13.423898580849183
2024-06-18 04:32:13.400,-0.005848626432415026,0.006758093190596602,0.011112938927653247,0.0,0.0,0.0,-29.4678995395979,10.41609322135081,-16.740538513323482,0.5427169631120448,0.31740504649648693,-13.412241512692393
2024-06-18 04:32:13.500,-0.007352345179018064,0.008520707374979225,0.013450839035737858,0.0,0.0,0.0,-29.391576358021066,10.546545488822435,-16.88025021730073,0.5385347548317703,0.3012941220814652,-13.455548667997851
2024-06-18 04:32:13.600,-0.00714919390866161,0.008244066173654755,0.015102927979683222,-0.2287225774872279,-0.29201745762732306,0.0,-29.71827606386574,10.51279798301946,-17.076614364917134,0.5422480678783632,0.3174417812836389,-13.443515508875542
2024-06-18 04:32:13.700,-0.00506714993566929,0.005722830399285546,0.01603431757680914,-0.7097104872053859,-0.9061101636839438,0.0,-29.75155960561752,10.448802101243343,-16.49277193332576,0.5223203111084983,0.29173488732571,-13.487088719425165
2024-06-18 04:32:13.800,-0.0019852266344040697,0.0020056282459663256,0.016693414213747367,-1.3360584555948694,-1.7057887233108324,0.0,-29.84233136588425,10.385227489102778,-14.916926992636588,0.5144714969263686,0.29676258142853135,-13.473839827046302
2024-06-18 04:32:13.900,0.002639284378201654,-0.003555169294088938,0.01679232158679351,-2.1744003070456785,-2.776126679330582,0.0,-29.5088674609231,11.910399915876678,-12.663607295097894,0.2555374500297583,0.09378922579592777,-13.5118119026962
2024-06-18 04:32:14.000,0.007673997787322205,-0.009608527558459994,0.01636974003606009,-3.0938822978447877,-3.950058856193441,0.0,-29.013631862577828,11.856377091132547,-8.112228104583616,-0.19113514400666823,-0.012439121846917403,-13.515209394549622
2024-06-18 04:32:14.100,0.01307302283012748,-0.016099805245325293,0.015389734994296514,-4.090109794977572,-5.221974484843575,0.0,-29.5731768807802,13.219988648257779,-0.05446148503605614,-0.7987366285144676,-0.20660271465024208,-13.598249065244296
2024-06-18 04:32:14.200,0.019893129296786025,-0.024290004396424102,0.01356241445847267,-5.289605256651933,-6.753408849574004,0.0,-28.55252794214802,13.141013476610572,0.050790534170167975,-1.6008675718155725,-0.9202169543085816,-13.495373907686906
2024-06-18 04:32:14.300,0.027923983004198936,-0.03392826577472039,0.01083506604442428,-6.669215302298032,-8.514801286091064,0.0,-27.964352294899783,13.943598370218638,1.4456880443252085,-2.50600304215941,-1.96906908638831,-13.363970043613726
2024-06-18 04:32:14.400,0.03733735296737009,-0.04275122502952337,0.007689336414828822,-7.22536121021757,-9.390734733720228,0.0,-26.910480064268068,14.056297017393993,1.0127590357417684,-3.6201904101214497,-3.251667945144517,-13.211904060460636
2024-06-18 04:32:14.500,0.048325520859186136,-0.050734331869151224,0.004061702612482806,-6.8768551795522646,-9.294628818801737,0.0,-26.350379828453512,14.895482548540334,2.6997875949533165,-4.807454023272753,-4.735844071355805,-13.131024862043363
2024-06-18 04:32:14.600,0.060708189359395454,-0.05881630933699589,-0.0003804734042971461,-6.083316216258451,-8.73575940060021,0.0,-25.130699398716846,13.74993614934791,-8.723753566270785,-6.051466570044682,-6.261471447319402,-12.973790879522001
2024-06-18 04:32:14.700,0.07461501103299958,-0.06643283361131823,-0.005574869287137972,-4.562944334658384,-7.402670463946514,0.0,-24.760703026117856,13.026291314618373,-13.504636606810529,-6.73571179338226,-7.285996366957107,-12.876661436276567
2024-06-18 04:32:14.800,0.0894920171817012,-0.07527315588809536,-0.009767014313165961,-2.9311509637138347,-5.986174107445815,0.0,-22.998784499835924,12.986490988501213,-12.211915198891946,-6.8865218958836145,-7.703232919390333,-12.766120039368953
2024-06-18 04:32:14.900,0.10531436124543739,-0.08545170432996058,-0.012837079063143826,-1.2158581893458709,-4.518732088162094,0.0,-22.214087408626472,13.064791062982666,-12.949598196291634,-6.812573730645963,-7.91627826884517,-12.698840589356083
2024-06-18 04:32:15.000,0.12249940666577382,-0.09566272490017835,-0.015592622846189166,1.1425083050739142,-2.377680018593246,0.0,-22.183281089151798,13.804550252135673,-12.641510023540558,-6.483816393068595,-7.9414054324107175,-12.578985445386238
2024-06-18 04:32:15.100,0.1409263878530868,-0.10628535027905897,-0.017553017326363843,4.025816476813516,0.30295142910231015,0.0,-22.007945706680438,13.834538354814931,-13.259340753475144,-5.962955990212338,-7.882858578747097,-12.500127628164076
2024-06-18 04:32:15.200,0.1514821219937276,-0.11022886436110861,-0.01855783307363391,5.966529329464731,2.250145870098373,0.0,-22.16785569363591,13.45783355197345,-12.95892254949,-5.309086102312175,-7.685052202181534,-12.357584779072623
2024-06-18 04:32:15.300,0.15327572480757265,-0.10661833334307698,-0.01853763701307415,6.902024423882594,3.4297384417468986,0.0,-22.231818516486182,13.189835797647673,-13.373169332355506,-4.577787747467763,-7.397019459297773,-12.253841529264186
2024-06-18 04:32:15.400,0.1504829780453439,-0.0990382832961687,-0.017110423289436853,7.456891908478727,4.3652831439541755,0.0,-22.1378040026053,13.59618493039804,-13.543908019672719,-3.8013985265495025,-6.976191693239035,-12.08808500263496
2024-06-18 04:32:15.500,0.14046165181916667,-0.085385496042095,-0.014130124323265493,7.2422824018324725,4.727638579889087,0.0,-21.99133420789104,13.92493467519069,-14.051806809053359,-2.991038823221694,-6.484282792586393,-11.967097433395375
2024-06-18 04:32:15.600,0.12853313987634296,-0.06940400385435318,-0.011217757173280907,7.267080125851557,5.431329786816442,0.0,-22.08864070363839,14.015010892421733,-14.503747507267517,-2.165969392871984,-5.8924390525002766,-11.789941766219053
2024-06-18 04:32:15.700,0.1148695395146848,-0.05124570732254382,-0.008346431866163444,7.585821360088284,6.528178569327336,0.0,-22.30041765843858,13.2684747648741,-15.168816839198703,-1.3288575797091458,-5.25281871050187,-11.662324501864283
2024-06-18 04:32:15.800,0.09439093484546222,-0.027102466127786773,-0.004525336578436856,7.359602439772631,7.282592127284693,0.0,-22.394169820340597,12.816054992702792,-15.310234491239553,-0.5175150026464073,-4.542603796401769,-11.47499931918649
2024-06-18 04:32:15.900,0.06804495633147051,0.0023767290447966197,-8.550715447573826e-05,6.798520050514321,7.890009538288258,0.0,-22.55354999896737,13.081200433783277,-15.157824872525834,0.2616911689747741,-3.8179456879354956,-11.331243067867174
2024-06-18 04:32:16.000,0.04873174612840777,0.023219405560694982,0.0031322653596969215,6.332973806179905,8.16880366014777,0.006717590420990299,-22.753214196504214,12.939754873943118,-15.818147932555616,0.97364725334557,-3.0590079402823553,-11.14131987269171
2024-06-18 04:32:16.100,0.03690140400281426,0.03467930777209413,0.00502909788393878,5.894089130330397,8.007621530891376,0.02084422282620299,-22.35330760414801,13.761187741608692,-16.120066485983564,1.621992506661035,-2.310657356686983,-11.030618701716703
2024-06-18 04:32:16.200,0.026923739927473475,0.04305353880263164,0.0062320894054675975,5.4126424719970405,7.620587979510652,0.03924008544232309,-22.422040422472715,13.897313790313603,-16.31306429402491,2.1890064212665954,-1.554839287927014,-10.885253692353745
2024-06-18 04:32:16.300,0.02214105500744432,0.04461223272692626,0.006217388906290837,4.972719999428967,6.924235967299988,0.06386221611560874,-22.792023854060783,13.380126730379741,-16.708935643058684,2.6883170052377707,-0.8348131309279226,-10.813462468685684
2024-06-18 04:32:16.400,0.013522627947946543,0.04860174636400275,0.006327326154949051,4.098612534914021,5.8293336745713855,0.09086743563317079,-23.250853798731665,13.004575456208118,-17.036864801829356,3.093813372904565,-0.1361593370127639,-10.684138397958092
2024-06-18 04:32:16.500,0.0004852484766377184,0.05558004761668427,0.0065727999183595705,2.7667099992320425,4.33408251419287,0.1201266734635071,-23.325233168565685,12.622547412073263,-17.292789366841625,3.430592751584809,0.5100817482438554,-10.588307605987255
2024-06-18 04:32:16.600,-0.00964581256846415,0.057717496036404844,0.005798709654301612,1.2726402401727919,2.3942817010785085,0.15535589880666317,-23.441271237868783,12.809142353880533,-17.266886699382187,3.662704456677764,1.1073906149525643,-10.410473804978704
2024-06-18 04:32:16.700,-0.01883067557623324,0.056950608457514484,0.0042451174157259845,-0.49631338928401736,-0.024534236947092947,0.1958750960330574,-23.4624883956548,12.869893097201908,-18.049098310753507,3.826431312757828,1.6386822970815393,-10.267535481822412
2024-06-18 04:32:16.800,-0.02608608386519445,0.05645368703434151,0.0037767270245981687,-1.6854549009310456,-1.5850242550595173,0.21602513153103145,-23.816081120844768,12.699798176751072,-18.01754915100452,3.859339426942052,2.084049192146458,-10.051671068163717
2024-06-18 04:32:16.900,-0.030399115248745466,0.055485535826676174,0.004398614205223442,-2.1891880392198697,-2.181682109846717,0.21381430421028658,-24.08992949002083,12.033549296089031,-18.17888286636983,3.8537924274962303,2.486679300298735,-9.890089368602546
2024-06-18 04:32:17.000,-0.03354464710913171,0.053775340228650305,0.005352775187110125,-2.4984164654981815,-2.485420364454196,0.20095803225723696,-24.444726278085273,11.712674479729493,-17.659817687475996,3.5096644279182128,2.490198909331775,-9.624950528211308
2024-06-18 04:32:17.100,-0.03494179801742999,0.051852715481787555,0.0070986136964382,-2.368686117859538,-2.1312697431188687,0.17029155928690629,-24.316347388281546,11.98390372449988,-17.679098900925705,2.7613944342902585,1.9431321580253575,-9.34775364186869
2024-06-18 04:32:17.200,-0.03327976760974943,0.04577949412306278,0.00818789429969499,-2.229889823211073,-1.921744992127771,0.13770637608207023,-24.2931401553457,12.26020813326138,-17.41742744876928,2.0811860365153247,1.5089809850535925,-9.030896493062416
2024-06-18 04:32:17.300,-0.028544013888651097,0.03534224941786172,0.008520996027229843,-2.1198134942047653,-1.914791770373972,0.10394923521729532,-24.334725264876298,12.289030011018017,-17.608972278711107,1.406032262567654,1.0440130483274905,-8.76968706096519
2024-06-18 04:32:17.400,-0.02074484288809523,0.02280899713646671,0.00919313278610328,-1.6080054237015928,-1.3936808707677706,0.05469632071609254,-24.366466864629118,12.375103657446399,-16.99149460272498,0.7618568505725736,0.6564095049902166,-8.459468171688043
2024-06-18 04:32:17.500,-0.009480312922396393,0.007210242380255598,0.00987478104985603,-0.7811503716908422,-0.5261923202707334,-0.0069691162805760355,-24.857657391924178,11.913835895674685,-17.379360735503674,0.16999638036683057,0.26112446777221665,-8.216820449650422
2024-06-18 04:32:17.600,-0.0026527160987534605,-0.0030284291927456164,0.010317875681432971,-0.3269802595454764,-0.07731708207877007,-0.04526663802405523,-24.781364623214944,11.354556601863898,-17.245802918185905,-0.3417009207922823,0.024544405470773675,-7.9406101420269035
2024-06-18 04:32:17.700,-0.0008484308231332461,-0.006965799685534402,0.010611827619116207,-0.24661863873346232,-0.022941510662814406,-0.058741683198545044,-24.814070977835875,11.677190106642826,-17.029577462701628,0.04011531172204848,0.09159907610470595,-7.86034093805521
2024-06-18 04:32:17.800,8.56252549682442e-05,-0.009366804680319201,0.01063203592054743,-0.2640754627894828,-0.10699739786829394,-0.06247430843431235,-25.139732548122478,11.4277768798408,-16.88990909213568,0.8385296340849857,0.1371877605210716,-7.849830698664502
2024-06-18 04:32:17.900,-0.001957459971952567,-0.007864334826045183,0.010331870442240838,-0.548641696241656,-0.5118524283068518,-0.047000475259243495,-24.92763767336865,11.787001954626673,-16.95056987054773,0.9229697952113906,0.36315708099220256,-7.8333638662846266
2024-06-18 04:32:18.000,-0.002254919632287692,-0.00689756157967159,0.010107467228443625,-0.5850788230348734,-0.6053625232349777,-0.037074318904547245,-24.90820049179639,12.085500527025316,-17.073192401293845,0.5253090379848695,0.3090567069165147,-7.740816604157409
2024-06-18 04:32:18.100,-0.00038332982554626987,-0.006867765111814552,0.009942139453612865,-0.33947629283186215,-0.3534738062794774,-0.03401276244998777,-25.021764496926682,11.716976485117518,-17.009650728778873,0.2058795596974761,0.20791360912125523,-7.715844059102865
2024-06-18 04:32:18.200,-0.00047875798151082244,-0.0034943700174345058,0.00959678094413621,-0.207132683609334,-0.21911716647273602,-0.017300852086584495,-25.170914437825733,11.380036296082192,-16.54329151214233,0.02716688657230379,0.05412116925888602,-7.602646049181324
2024-06-18 04:32:18.300,-0.0014965131739216623,0.002297020879452962,0.009146327535379788,-0.07253804902239783,-0.06144440386629424,0.00790794582111048,-25.216273608904977,11.289211376359857,-16.68524540740743,-0.001966894531772083,-0.012326063708190164,-7.529235550071274
2024-06-18 04:32:18.400,-0.0015045016466360968,0.005021602139262728,0.008815948696130043,0.042104856027161935,0.058694870783014746,0.0211107898787348,-25.238345644859216,11.457308391809441,-15.780564492094793,0.13405229661211934,0.11993708098581948,-7.427374527669122
2024-06-18 04:32:18.500,-0.0008496916070409502,0.004770163072731041,0.008603666659671551,0.09097536843069289,0.08697306399549418,0.02295679636491374,-25.12007974752972,11.702296594193214,-15.742035044984126,0.2646883017586805,0.09573617171560458,-7.391951008737654
2024-06-18 04:32:18.600,0.00025435313995292633,0.003577014126593915,0.008452984871462035,0.16698407632609763,0.15378451048497996,0.01978762730635247,-24.96081618797033,12.090540935621243,-16.176947766954026,0.38268662241338225,0.13558417487460134,-7.320100465015677
2024-06-18 04:32:18.700,0.0021782258210780374,0.00012097294173554097,0.008423620177451177,0.25264173800550854,0.23096246336145015,0.006633317642677262,-25.139177052865307,11.829517865849882,-16.09085007037855,0.3821602609120441,0.137673490556718,-7.333000747829605
2024-06-18 04:32:18.800,0.002789030566257575,-0.001296605159446385,0.008307967810900426,0.26589945739016596,0.2414453453470876,0.0008384666322290037,-25.28353705773371,11.452806619079325,-16.05895521618808,0.36319643055746814,0.19511428901700253,-7.297953166290804
2024-06-18 04:32:18.900,0.002002671272167471,-0.0004112097917238992,0.008102765628556568,0.21231266840835672,0.1953439057006949,0.003164033381923041,-25.23062680181968,11.421779408535464,-15.792510788808395,0.3534112346254265,0.17898527070345593,-7.320106315164375
2024-06-18 04:32:19.000,0.0011437741626208833,-0.00043704382285703275,0.007964832023599659,0.11477375133976596,0.10471880564347784,0.0008483603232960139,-25.018610021702635,11.915778267410728,-15.874551093776867,0.36832558671602483,0.15831837387481384,-7.311634017459644
2024-06-18 04:32:19.100,-0.00028100993620766416,-0.00040732256796428335,0.007852913003338784,-0.045031039777224786,-0.04635162830595198,-0.0023475039999520816,-25.031694600159568,12.009110763101704,-16.011768570963724,0.325697248751251,0.13639830560579266,-7.338736418309717
2024-06-18 04:32:19.200,-0.0010218110106881512,-0.00030634229400619637,0.007750258835451223,-0.12529017607885412,-0.12034358312724877,-0.0037701820949356045,-25.159484026726634,11.781743226726118,-16.10596880092148,0.2930765155482765,0.12162310912173753,-7.317442309126189
2024-06-18 04:32:19.300,-0.0008633502875339628,-0.00047127056212278184,0.007675491354541352,-0.11516946645364932,-0.10833123333436864,-0.004549153237824728,-25.290119345809728,11.299228004266071,-16.046125615159216,0.24802490510550743,0.06581565427368735,-7.356686433642472
2024-06-18 04:32:19.400,-0.0007820386187259993,-0.00020903435024440713,0.007610812273064225,-0.09757978478369185,-0.08916366175493085,-0.00328606899155113,-25.230287039121265,11.429348735533855,-15.867604509157482,0.19164806114512523,0.047091053577105906,-7.339567669261325
2024-06-18 04:32:19.500,-0.0004274101409993069,0.000408288382827321,0.007558410302025821,-0.03590708604416279,-0.027990819254156175,0.00043673114821597345,-25.396686055435683,11.165127485338918,-16.119959068725564,0.15985396546195557,0.011618267415739063,-7.381941082340004
2024-06-18 04:32:19.600,-0.00023007783405721536,0.000607566815667699,0.007574258222090572,-0.0066497576761997655,0.0005018496754253614,0.0018430411592863327,-25.375566900906247,11.203849592033341,-15.895894790265347,0.17169543980055949,0.0324616483182025,-7.380417200738074
2024-06-18 04:32:19.700,-0.0002986933796025668,0.00044717342729537593,0.007661225684896816,-0.019577342001216566,-0.013222149702908088,0.0010200544263667534,-25.39436046741929,11.124371282042476,-15.994903618979032,0.15493476789095828,0.009319954993475182,-7.4271637950665195
2024-06-18 04:32:19.800,-0.00012927131914946513,0.0002405973713417559,0.00779662714263016,-0.006805710174831245,-0.0039235740981366524,0.0006616425651703789,-25.352156218585606,11.170464782590184,-15.899672765609301,0.15800758005279336,0.023811197963708997,-7.423154950804214
2024-06-18 04:32:19.900,0.00016332982138110474,-0.00016696251337010678,0.007995578419290413,0.01328910099332618,0.010310025758768522,-0.00022681883398666762,-25.393002141167457,11.117512830772736,-15.8665108326635,0.1519574583908211,0.0025491594056825766,-7.46426307434909
2024-06-18 04:32:20.000,0.00028410658281357773,-0.00033373309993968376,0.008095646059483264,0.021694438960575622,0.01619900501657863,-0.0005751860360590833,-25.369213502151243,11.224897994807446,-15.994520115562329,0.14370333316820263,0.011354752169122805,-7.453420481191158
2024-06-18 04:32:20.100,0.00027367480790840186,-0.0002118375754564817,0.0080824949661668,0.024580924344183307,0.019936831515541202,-8.029851568135781e-05,-25.391515662826396,11.14188778095065,-15.957393261652244,0.13953749606563637,-0.006571543199497175,-7.493392592367774
2024-06-18 04:32:20.200,0.0001894229326043098,-0.00012933384021809126,0.008046632023846093,0.01758942458931502,0.014485869762937564,1.816700178065872e-05,-25.35474186027298,11.191955432145344,-15.922767229432358,0.14184240818288543,0.007908512869562772,-7.484285173367814
2024-06-18 04:32:20.300,-2.7678841205387555e-05,2.421684901630315e-05,0.007944291963697843,-0.0023922687487088604,-0.0019060316181277166,2.0185647664958086e-05,-25.375597145082274,11.18122213905987,-16.016581787198415,0.137497298806415,-0.007384607692647781,-7.5247716202286545
2024-06-18 04:32:20.400,-0.00011429751566578688,9.515333966472152e-05,0.007867720008701777,-0.010040879741566065,-0.00806284853241989,6.253397962058865e-05,-25.373325342527774,11.170333507665159,-15.925459641069025,0.14182170179070525,0.009088358874097922,-7.515334067109027
2024-06-18 04:32:20.500,-5.9015173883661894e-05,4.075077679990258e-05,0.007826199394986692,-0.0054647549287693675,-0.004495024646788383,-3.699457274720451e-06,-25.385504080829563,11.178278055633383,-16.034837925394076,0.1414319833281421,-0.0038346504209092773,-7.556215713224448
2024-06-18 04:32:20.600,-3.656915091348704e-05,2.1632231958962362e-05,0.007736744832307336,-0.0035073591308775074,-0.0029287394303926543,-1.7835742807904027e-05,-25.355742437013735,11.203132405659852,-15.955098179135621,0.1486920844712073,0.013855286622932677,-7.547143622192822
2024-06-18 04:32:20.700,1.277812308353923e-05,-8.09445563183101e-06,0.00761999235386498,0.0012076333042270232,0.0010021525153616263,3.931842176575286e-06,-25.396390072586684,11.16450950097176,-15.951193428866663,0.15287431354557585,0.0029272337846521774,-7.588859074164143
2024-06-18 04:32:20.800,3.328367576566391e-05,-2.299622528237022e-05,0.007555539288643935,0.0030815918858227644,0.0025345960362646767,2.0289061230486845e-06,-25.364115878652232,11.179366048747603,-15.933394550086561,0.16160989787219007,0.021725766419693773,-7.579608103964811
2024-06-18 04:32:20.900,4.750368617591142e-06,-3.501785545846106e-06,0.007540478235921504,0.0004324664740510785,0.0003530448640758099,-6.538675224747224e-07,-25.372828773933918,11.129285761031777,-15.966905493556913,0.15337075150094745,0.002790167501723069,-7.621345489405635
2024-06-18 04:32:21.000,-1.058349974320964e-06,7.462532317979514e-07,0.007551216557471244,-9.74854679930244e-05,-7.999968820163146e-05,0.0,-25.36022949691249,11.223545891103402,-16.017379495868695,0.15023997523204838,0.012204920405292379,-7.612524587130453
2024-06-18 04:32:21.100,-1.1759496666425592e-06,8.2917395989618e-07,0.007606962692267445,-0.0001083176703079175,-8.888893934407287e-05,0.0,-25.397858633745656,11.154253719875477,-15.898456835080157,0.1438232820814186,-0.005898798738867129,-7.653592730849664
2024-06-18 04:32:21.200,-3.6430246732346566e-06,2.5687334075529247e-06,0.007641910531267758,-0.00033556193489613344,-0.0002753728398364739,0.0,-25.370640980330034,11.177998537060159,-15.871392413431765,0.14428784307252931,0.006813587902278122,-7.644176917505386
2024-06-18 04:32:21.300,2.1551825441390612e-07,-1.5196409294668318e-07,0.007653484729643741,1.985155988316558e-05,1.6290823993201726e-05,0.0,-25.41165343649925,11.140775463369325,-15.968164871819543,0.14207622411417578,-0.008087735121191146,-7.685369843430523
2024-06-18 04:32:21.400,1.0390519123985076e-06,-7.326459738714709e-07,0.0076904876854356685,9.570790797647516e-05,7.854096568625299e-05,0.0,-25.416127316356743,11.150837255189202,-15.971154786585783,0.14677735493625704,0.006532355711660023,-7.676489134951174
2024-06-18 04:32:21.500,-2.2905623706399236e-07,1.6150986093437868e-07,0.007738883380919557,-2.1098554361690376e-05,-1.731414748464024e-05,0.0,-25.35232551126194,11.248488230081364,-16.41126433291439,0.1489348336125038,-0.004832645134209294,-7.717901945106144
2024-06-18 04:32:21.600,-1.1819742019920481e-07,8.334219204798439e-08,0.0077654569278989465,-1.0887259510806429e-05,-8.934432835641546e-06,0.0,-25.35518571440811,11.21608427748996,-16.347199446410283,0.15910770954117195,0.013957011963123626,-7.70919446099374
2024-06-18 04:32:21.700,3.80921785540411e-08,-2.6859178950154136e-08,0.007772366361444773,3.508701226734648e-06,2.879352275885249e-06,0.0,-25.366124088808593,11.24108035542468,-16.324913237579963,0.1673194573344149,0.007146875259008892,-7.750972252079722
2024-06-18 04:32:21.800,0.0,0.0,0.007765504113301537,0.0,0.0,0.0,-25.381003721949096,11.274981883772899,-16.33897783532807,0.18353369325669058,0.030288667271838817,-7.74240487183866
2024-06-18 04:32:21.900,0.0,0.0,0.007736737244323351,0.0,0.0,0.0,-25.358894487273766,11.298769269174068,-16.44581646419322,0.19831154417551922,0.028404957516055734,-7.78366510792407
2024-06-18 04:32:22.000,0.0,0.0,0.007717913442092048,0.0,0.0,0.0,-25.312144595151224,11.426009622983832,-16.85634994204294,0.21759278125313417,0.053401138096168886,-7.77441127052919
2024-06-18 04:32:22.100,0.0,0.0,0.007709425837271105,0.0,0.0,0.0,-25.467124614276912,11.142016646148178,-15.972318037527979,0.21520594096197146,0.0397606551317405,-7.815420527438385
2024-06-18 04:32:22.200,0.0,0.0,0.007688346666684034,0.0,0.0,0.0,-25.41143849061047,11.190269983693591,-16.210640617653116,0.20188870050684474,0.04260447517865246,-7.80554621874777
2024-06-18 04:32:22.300,0.0,0.0,0.007661106815610027,0.0,0.0,0.0,-25.424807499791772,11.165695927567276,-16.072882501576906,0.17561473837786795,0.012394445908772443,-7.845623224333583
2024-06-18 04:32:22.400,0.0,0.0,0.007646738309140633,0.0,0.0,0.0,-25.40006664537919,11.15965848294778,-16.020243399176906,0.14216114469690572,0.0015695741937575317,-7.835002169535802
2024-06-18 04:32:22.500,0.0,0.0,0.0076444493361782495,0.0,0.0,0.0,-25.40641516893376,11.187917342160663,-16.186760397765482,0.09524054788105311,-0.041843319242276224,-7.874277567545165
2024-06-18 04:32:22.600,0.0,0.0,0.007649530744798549,0.0,0.0,0.0,-25.37975756440557,11.190441184942891,-16.02216986068941,0.04185335447365985,-0.0675978067375019,-7.863431131082505
2024-06-18 04:32:22.700,0.0,0.0,0.007666685004322298,0.0,0.0,0.0,-25.406393392146914,11.148508511512215,-15.88642483966137,-0.02010317979384045,-0.12214811958319538,-7.9021268474441895
2024-06-18 04:32:22.800,0.0,0.0,0.007678382955826441,0.0,0.0,0.0,-25.363686899860642,11.15347115357509,-15.885584459147081,-0.08675834892961787,-0.1578382253135113,-7.890479573227968
2024-06-18 04:32:22.900,0.0,0.0,0.007684143821030343,0.0,0.0,0.0,-25.364385832559762,11.205835900545237,-15.864219906660573,-0.1090904134905866,-0.17589188373721204,-7.925864228751135
2024-06-18 04:32:23.000,0.0,0.0,0.007696713083023526,0.0,0.0,0.0,-25.34204170608665,11.221969121406156,-16.024516032537715,-0.08583245199186686,-0.15168743677342722,-7.910990364803854
2024-06-18 04:32:23.100,0.0,0.0,0.00771242370749475,0.0,0.0,0.0,-25.36278223331629,11.119662829475752,-15.91029159923478,-0.10788651232726837,-0.17998473618333716,-7.940732908395803
2024-06-18 04:32:23.200,0.0,0.0,0.007722016226418798,0.0,0.0,0.0,-25.323295072226887,11.180276120623509,-16.06694503915966,-0.1154984185005561,-0.17135679667511733,-7.932025364615504
2024-06-18 04:32:23.300,0.0,0.0,0.007726002111370543,0.0,0.0,0.0,-25.331735379078314,11.185104673723473,-16.0893759207525,-0.12323251173637857,-0.1902356696890313,-7.9779972529650784
2024-06-18 04:32:23.400,0.0,0.0,0.007726227983696409,0.0,0.0,0.0,-25.3371102035063,11.14783274470198,-15.955486285696344,-0.125436077901978,-0.1813390676438181,-7.968135642096455
2024-06-18 04:32:23.500,0.0,0.0,0.007720407483206627,0.0,0.0,0.0,-25.301847535808495,11.233645161300348,-16.434004349152556,-0.13168337268222752,-0.19887566086852299,-8.009417661624816
2024-06-18 04:32:23.600,0.0,0.0,0.007717315611221787,0.0,0.0,0.0,-25.274206766934693,11.19620720030453,-16.407337229702367,-0.13226060388885844,-0.18748894525761708,-7.999584115817269
2024-06-18 04:32:23.700,0.0,0.0,0.007717093544854888,0.0,0.0,0.0,-25.32860160378289,11.160058062966186,-16.112019848337482,-0.1366134832466672,-0.2028034810852256,-8.040344735523666
2024-06-18 04:32:23.800,0.0,0.0,0.0077133879140250895,0.0,0.0,0.0,-25.311480491362556,11.166272267619856,-16.299550647549044,-0.13570701626345502,-0.1914167037614998,-8.030939336492274
2024-06-18 04:32:23.900,0.0,0.0,0.007707983555947929,0.0,0.0,0.0,-25.332132611514286,11.163640085757878,-16.180862083388316,-0.13946446395485249,-0.2061186847947901,-8.072038903260916
2024-06-18 04:32:24.000,0.0,0.0,0.0077049380281396735,0.0,0.0,0.0,-25.309503074318624,11.19742701725441,-16.272290017340524,-0.13776600768066616,-0.19435232472563235,-8.062386228247798
2024-06-18 04:32:24.100,0.0,0.0,0.007703909810554435,0.0,0.0,0.0,-25.356943078825047,11.125829314698354,-16.040567817742165,-0.14042584347116005,-0.20781439256152553,-8.103472719924588
2024-06-18 04:32:24.200,0.0,0.0,0.0077041717077279605,0.0,0.0,0.0,-25.31414283002859,11.180236255473512,-16.205744933876858,-0.13300864932046239,-0.1911214875709684,-8.094261075726262
2024-06-18 04:32:24.300,0.0,0.0,0.007706675291090548,0.0,0.0,0.0,-25.331530672481623,11.169541878116794,-16.14900954823186,-0.11621500868760534,-0.19056091658989616,-8.135448283083628
2024-06-18 04:32:24.400,0.0,0.0,0.007707281150968045,0.0,0.0,0.0,-25.311801203937616,11.174095533961589,-16.23773249895085,-0.09631886938088219,-0.16546167591264016,-8.126449248843565
2024-06-18 04:32:24.500,0.0,0.0,0.00770588606484333,0.0,0.0,0.0,-25.313184710780238,11.234426726510955,-16.245465349680224,-0.08156951723258032,-0.1661711712536417,-8.167850519980615
2024-06-18 04:32:24.600,0.0,0.0,0.007705343804648845,0.0,0.0,0.0,-25.327115271338286,11.15355188498011,-16.095639436865987,-0.06331449534056303,-0.14232304435425353,-8.158315452120549
2024-06-18 04:32:24.700,0.0,0.0,0.007704770935542175,0.0,0.0,0.0,-25.36158910473947,11.146522530451692,-16.16662100394074,-0.04907845634039784,-0.14304081091843923,-8.1994723356113
2024-06-18 04:32:24.800,0.0,0.0,0.00770368710932279,0.0,0.0,0.0,-25.333215603457425,11.122195048336478,-16.249933398957417,-0.02972885448888477,-0.11817051649970274,-8.19001098466556
2024-06-18 04:32:24.900,0.0,0.0,0.007702335437690128,0.0,0.0,0.0,-25.367019424877203,11.180056167502157,-16.245010060035966,-0.012397233907298905,-0.11723458350227643,-8.231702880413541
2024-06-18 04:32:25.000,0.0,0.0,0.007700314586578856,0.0,0.0,0.0,-25.341990268115694,11.195175613841759,-16.3473608409923,0.009826628760474274,-0.09051901565956445,-8.222871012261672
2024-06-18 04:32:25.100,0.0,0.0,0.007697546411843896,0.0,0.0,0.0,-25.37615630364001,11.166557761043435,-16.193671616568345,0.03074548456995375,-0.0866905126971006,-8.264551284267744
2024-06-18 04:32:25.200,0.0,0.0,0.0076950566612138905,0.0,0.0,0.0,-25.34615761321679,11.22633115392964,-16.4617743745937,0.057110285928736584,-0.057102516529623434,-8.255740772266938
2024-06-18 04:32:25.300,0.0,0.0,0.007692804862709769,0.0,0.0,0.0,-25.336144750343433,11.248680569557582,-16.50704851894999,0.0813032976472479,-0.05111656510025617,-8.297361876793442
2024-06-18 04:32:25.400,0.0,0.0,0.00769021156518145,0.0,0.0,0.0,-25.3181797600185,11.26431920150622,-16.596113783391527,0.11012855187469359,-0.019392895072952734,-8.288220071574223
2024-06-18 04:32:25.500,0.0,0.0,0.007687478411459541,0.0,0.0,0.0,-25.335368920104074,11.288230195661502,-16.649509381404652,0.13608214564712703,-0.012047161411326016,-8.329092637351026
2024-06-18 04:32:25.600,0.0,0.0,0.007686215374798371,0.0,0.0,0.0,-25.362976195604475,11.249214894165936,-16.461033859445582,0.16741697721857826,0.020437428602112152,-8.31943587006907
2024-06-18 04:32:25.700,0.0,0.0,0.007686538641503693,0.0,0.0,0.0,-25.384765412499053,11.2422215965635,-16.39627392362042,0.18982291825130304,0.025708081994036246,-8.355631655297255
2024-06-18 04:32:25.800,0.0,0.0,0.007687836689346949,0.0,0.0,0.0,-25.342454165298264,11.202283159595861,-16.504141886500502,0.20082729453724568,0.04418035037391079,-8.338760874467482
2024-06-18 04:32:25.900,0.0,0.0,0.007690574090459458,0.0,0.0,0.0,-25.385674863996957,11.24783768726077,-16.366659204959607,0.20528278093061603,0.03721556133491669,-8.37504031733623
2024-06-18 04:32:26.000,0.0,0.0,0.007693648643485229,0.0,0.0,0.0,-25.351721060099912,11.176001311591166,-16.46300257935377,0.21117733526687246,0.052923967600776035,-8.364491713232875
2024-06-18 04:32:26.100,0.0,0.0,0.007697045526626058,0.0,0.0,0.0,-25.36796528717326,11.212993138853696,-16.531040916452362,0.20906993958157044,0.04121648961893384,-8.405630573556158
2024-06-18 04:32:26.200,0.0,0.0,0.007701745438266745,0.0,0.0,0.0,-25.321207112308972,11.255862838187234,-16.46809337735678,0.203880234362456,0.047981036725044744,-8.395398191011644
2024-06-18 04:32:26.300,0.0,0.0,0.0077075528131682865,0.0,0.0,0.0,-25.34799003594031,11.204867037836985,-16.482573437309537,0.18682548840021612,0.025812179539220187,-8.434766150620298
2024-06-18 04:32:26.400,0.0,0.0,0.007716417315744867,0.0,0.0,0.0,-25.281973841294267,11.26033621150168,-16.743885576752717,0.16402754823403204,0.020728404168898262,-8.42410325968531
2024-06-18 04:32:26.500,0.0,0.0,0.007728702725536152,0.0,0.0,0.0,-25.29200120343902,11.267156964016456,-16.660151560132782,0.12680770212708203,-0.013890834464134753,-8.463492881270675
2024-06-18 04:32:26.600,0.0,0.0,0.007743409717882192,0.0,0.0,0.0,-25.27777390521244,11.26353784744498,-16.57134213128463,0.08248469849728114,-0.03282156012572429,-8.452458880761856
2024-06-18 04:32:26.700,0.0,0.0,0.0077611812501575715,0.0,0.0,0.0,-25.30600538156689,11.18993636220708,-16.343472004165704,0.024853040941382142,-0.08164034118275357,-8.49103183674338
2024-06-18 04:32:26.800,0.0,0.0,0.007781226199859147,0.0,0.0,0.0,-25.28900614614484,11.201481258531203,-16.27467038769663,0.028168146866791616,-0.06829209933028166,-8.479497735566337
2024-06-18 04:32:26.900,0.0,0.0,0.0078035660234101155,0.0,0.0,0.0,-25.206765184010706,11.42164892348435,-16.78903942847857,0.10997120609776775,-0.015414309489367796,-8.520367472604146
2024-06-18 04:32:27.000,0.0,0.0,0.007829231221485839,0.0,0.0,0.0,-25.26916174998323,11.29640471857992,-16.38750994693891,0.19092435861591875,0.039123955603871614,-8.525337646952254
2024-06-18 04:32:27.100,0.0,0.0,0.007858147582334517,0.0,0.0,0.0,-25.30788044224324,11.13483450204409,-16.12371957204348,0.23021340268023596,0.061866670290546676,-8.572813392314343
2024-06-18 04:32:27.200,0.0,0.0,0.007872947360054982,0.0,0.0,0.0,-25.272494209028682,11.208881635482978,-16.26525195171413,0.29536025144761824,0.11452550160498863,-8.57049193902578
2024-06-18 04:32:27.300,0.0,0.0,0.007872090826405975,0.0,0.0,0.0,-25.302136516886232,11.165043445537863,-16.148501893709472,0.3521462138198932,0.1346754966553173,-8.61375712241497
2024-06-18 04:32:27.400,0.0,0.0,0.007863759774146297,0.0,0.0,0.0,-25.263709707262738,11.192234693653623,-16.265033934472086,0.3927296461481064,0.17412252905897782,-8.601809138878105
2024-06-18 04:32:27.500,0.0,0.0,0.007843039054018258,0.0,0.0,0.0,-25.29589316173873,11.167199646218824,-16.26752508086971,0.4321578249241709,0.18771766717228439,-8.644000418607197
2024-06-18 04:32:27.600,0.0,0.0,0.00782029381325843,0.0,0.0,0.0,-25.29082060496823,11.13360362984938,-16.17509753812549,0.471801645927019,0.22574425630000736,-8.634707558115391
2024-06-18 04:32:27.700,0.0,0.0,0.007796013771718855,0.0,0.0,0.0,-25.315223845140302,11.140721748478429,-16.075347333524327,0.5056034596912921,0.23696264515489654,-8.676389599713033
