Timestamp,AccX,AccY,AccZ,AsX,AsY,AsZ,HX,HY,HZ,AngX,AngY,AngZ
2024-06-18 04:38:40.24,-0.1446943497026388,0.1792299159806944,0.9980540513805228,-0.4042420989568567,-2.26384683157225,-1.0991603747925147,-17.366979209046473,-44.610918570794254,-36.376238651454685,9.881420205317118,7.767925377278427,-10.833354127897763
2024-06-18 04:38:40.35,-0.1401000149624119,0.1756357761805707,0.9877048551415764,-0.1245552733768433,-2.051107858392486,-0.9734338602911712,-16.966652267540756,-45.78483882655304,-36.54489911180088,9.903328473171555,7.606711403810821,-10.936583744273504
2024-06-18 04:38:40.46,-0.135505680222185,0.172041636380447,0.97735565890263,0.15513155220317,-1.8383688852127211,-0.8477073457898278,-16.566325326035034,-46.95875908231183,-36.71355957214708,9.925236741025994,7.445497430343215,-11.039813360649244
2024-06-18 04:38:40.57,-0.1321619100564697,0.1690695508766067,0.9725833871358064,0.2220337045906281,-1.6558910465977053,-0.9013991032468816,-16.55861082148145,-47.067681180882765,-36.7319796661736,9.941907548932727,7.298588352652112,-11.146116443354746
2024-06-18 04:38:40.67,-0.129521760532298,0.1672171974313571,0.9728406955214466,-0.01830337617891,-1.5612156166126838,-1.0562759419142542,-16.71815027211727,-46.75127166570869,-36.62849587733516,9.931087280838442,7.178389889387929,-11.254395870818175
2024-06-18 04:38:40.79,-0.1261609918394858,0.1658702503582223,0.9734123418992804,-0.518778298410892,-1.6064487015142004,-1.1100269076179987,-16.61540792812915,-46.73580966011384,-35.76920722239101,9.861828257104724,7.037773121843994,-11.401590953954004
2024-06-18 04:38:41.00,-0.1210146527351421,0.1640660456533044,0.9743989514750276,-6.609779660326312,-3.210906347694644,-1.3237461117659977,-16.719910745135767,-45.5840338541004,-33.704516154513115,9.253618565754907,6.623399353902838,-11.65445462432876
2024-06-18 04:38:41.11,-0.1173963724644549,0.1602922126681584,0.9799335335677696,-9.659746944770466,-2.2791493209834117,-1.4556192864295427,-16.406072460808108,-45.08577998612462,-35.28060898816396,8.394755120617182,6.382660056753056,-11.81505900420424
2024-06-18 04:38:41.21,-0.1130361235593769,0.1508976175847374,0.989870051387036,-8.335338521698558,-0.8809872810194497,-1.1546551794197484,-15.848999046377855,-45.08112682100936,-37.99496933122249,7.539632921640896,6.268981859238067,-11.963532103564887
2024-06-18 04:38:41.32,-0.1080578138254068,0.134231724468136,0.993086718958577,-5.548682257878618,-0.5222075442435341,-0.7607635553466077,-15.273668343624747,-45.186860974509614,-39.37210622494,6.883349048468437,6.209591397319332,-12.078877603328191
2024-06-18 04:38:41.43,-0.1050013032723799,0.1179647733047767,0.9837421664849544,-3.847028494427229,-0.1692678017709591,-0.5978340097982449,-14.944560160121402,-45.14044589069708,-39.493945808315765,6.435992894240743,6.161295038635076,-12.161102396460768
2024-06-18 04:38:41.55,-0.1038884468535044,0.1056134963834478,0.984864067154824,-2.4810675462063148,0.0691227455377379,-0.5232025640190499,-15.13248479373234,-44.55822735298814,-40.022608456195535,6.089520953570343,6.140286377692618,-12.231719677553787
2024-06-18 04:38:41.76,-0.1030143910412798,0.0910684653539438,0.9877375439523908,-0.8760694763690777,0.5543869077124524,-0.4125233942541787,-15.092905809983405,-44.45188361324874,-40.33483006050152,5.699501999112767,6.161297780842914,-12.339934497206665
2024-06-18 04:38:41.87,-0.1036127367044246,0.0851697141559241,0.9886324072725096,-0.2902548853224381,0.8763587007963978,-0.3767499596485666,-15.05749228070135,-44.35636724070363,-40.50268702532357,5.579746729688133,6.213260045994925,-12.392652873854663
2024-06-18 04:38:41.98,-0.104374014475056,0.0821819548674427,0.9890295151708116,0.098122854127269,1.177657376522623,-0.3314456265192055,-14.956046594931632,-44.27736936194826,-40.49109124548336,5.5012431563173045,6.293558084068888,-12.437808070665673
2024-06-18 04:38:42.08,-0.1055209245352149,0.0809024451299969,0.9889884124235648,0.4450203276875999,1.452878772911672,-0.3396328721409007,-14.91609255907468,-44.45928406977067,-40.24694091309068,5.452259658322199,6.397225423802063,-12.477267105314038
2024-06-18 04:38:42.19,-0.1082406935384416,0.0801511245390059,0.989129926753086,0.7879409449743145,1.6716001011959651,-0.2674730266556537,-14.904029038539145,-44.492323740183394,-40.17585316062751,5.437126962019304,6.538427101958524,-12.514994995121429
2024-06-18 04:38:42.31,-0.1114168402499867,0.0812398985771808,0.9899246776448078,0.8208249314786887,1.838008302919793,-0.1199128379913068,-14.521566069712456,-44.590767489146295,-40.05207811435962,5.448853735463463,6.718246927988308,-12.545851933606286
2024-06-18 04:38:42.52,-0.1182466748249548,0.08556600068304,0.9906134863089936,-0.5896258653988572,1.9477756565012052,0.0313887604217006,-14.47055453681079,-44.91202944964191,-39.5804147654805,5.40794842097568,7.058025852306876,-12.571759051974745
2024-06-18 04:38:42.63,-0.1223992477366228,0.0877948560054788,0.9916444393691388,-2.1317829175388847,1.4422680061566653,0.0183348248513265,-14.62079646074124,-44.722609827161655,-38.537232947809855,5.232382640174657,7.23277960473409,-12.57602469706848
2024-06-18 04:38:42.74,-0.1255608649385379,0.0868335706201125,0.9930797920728424,-4.525635555195965,-0.800372134159788,0.0923348059410934,-15.33976712956111,-44.03113097120431,-37.93323066259499,4.8826967214809445,7.249266412117574,-12.566554497727235
2024-06-18 04:38:42.84,-0.1270846425177621,0.0829824138105786,0.9976305559295298,-5.721849140071387,-1.3290030039068634,0.1406857269902705,-15.676928988354016,-43.54784431982825,-38.07192513875346,4.414272512248416,7.126554902076349,-12.556840006273992
2024-06-18 04:38:42.95,-0.1267910557089951,0.0760930315684172,1.0051447997060408,-4.843291120480529,-0.9515950276328576,0.396475824409133,-15.401047864538723,-43.64100567179591,-39.651559832782105,3.871223487541864,7.0200919909765656,-12.532460195316355
2024-06-18 04:38:43.07,-0.1239075412837367,0.0631944470056726,1.003718364855524,-2.911649251125022,-0.8144488437209046,0.8485205392914631,-15.526102926061457,-43.707525101582,-41.9962511313592,3.448243173324962,6.912991469117883,-12.452482781581525
2024-06-18 04:38:43.28,-0.1174174518274411,0.0439431109654767,0.9848845252570312,-1.356818412673244,-0.6649654012982983,1.071622073913611,-16.810397486444828,-43.04978888532091,-42.46712866344272,3.07589330005611,6.774607380432594,-12.225664251093246
2024-06-18 04:38:43.39,-0.1170276974692399,0.0404683198485507,0.9894013850246078,-1.6505274322013743,-0.3810180412841518,0.8953574945945239,-16.93473334095817,-43.13960749167945,-42.62921062126682,2.8672564460032093,6.700891977810475,-12.11933691229123
2024-06-18 04:38:43.50,-0.1166380984529017,0.0377668630221423,0.9916588025101648,-1.8019346309783195,0.2520468748179659,0.6051015502844669,-17.155048212289543,-43.17000080800957,-42.79409339800203,2.628136559288972,6.6887124797375295,-12.043132916393624
2024-06-18 04:38:43.60,-0.1157182077732326,0.0354498559318567,0.990739784449302,-1.7524373583603523,0.756342677779361,0.4663030041683405,-16.986497165595583,-42.75520342103151,-42.67409392699667,2.435221148426136,6.733500267133862,-11.993950321331258
2024-06-18 04:38:43.71,-0.115479330092206,0.0327339528340171,0.9903011801412572,-2.34671771054022,0.6653331567605549,0.4448121520758508,-15.810863396093126,-43.03909207626824,-42.61903742290659,2.1971383606627897,6.807610140232842,-11.94202333865032
2024-06-18 04:38:43.83,-0.1169492883282454,0.0298754995215858,0.9909558923408937,-4.640309351889836,-1.041605252772403,0.6721847360599493,-15.980683546304288,-42.8953203171209,-42.25346394892681,1.7890219723920944,6.787470293394116,-11.87328409806955
2024-06-18 04:38:44.04,-0.1159491132895568,0.0158560516333556,0.9985087483720544,-8.490258448741114,-1.0446577365126355,0.7995169687664498,-16.692585665854462,-42.108777503167055,-42.14015892843712,0.3108033938166574,6.424551608272139,-11.722193519892937
2024-06-18 04:38:44.15,-0.1133235963091735,0.002381943376388,1.011457850528908,-6.908263864353972,-0.3056006640053506,1.2689977471873688,-16.850130386484253,-41.72077325691932,-43.18942363803784,-0.4649541958175557,6.372610477318079,-11.607207386895071
2024-06-18 04:38:44.26,-0.1105726823197929,-0.0116015536219204,1.0124057905903734,-4.874685811232061,-0.5462241747541061,1.877327483665627,-17.028293619476596,-41.4739966770242,-43.78610044670671,-1.042888405093843,6.327538835063096,-11.437255002735876
2024-06-18 04:38:44.37,-0.1069337133818288,-0.0260278718174313,1.0047148561622878,-3.005138511623094,-1.249874877041941,2.282993382718812,-17.26521583469922,-41.476212883542935,-44.08403452755622,-1.4357514968851353,6.219186816812299,-11.207449121206242
2024-06-18 04:38:44.47,-0.1042266019095782,-0.0357146560450246,1.0005100015314738,-1.501492272907121,-1.7167415181362198,2.2629325091393238,-17.56537693958166,-41.31004700457704,-44.083079139662445,-1.6457762373965248,6.07104328317252,-10.98715675880432
2024-06-18 04:38:44.59,-0.1018259218696022,-0.0433128155605153,0.9993271625225568,0.2105071567432377,-2.083479445344904,1.9924960123408704,-18.1031194458178,-41.09950118657743,-43.98562588819498,-1.755464086707931,5.8459468299300665,-10.73471714937315
2024-06-18 04:38:44.80,-0.0960328210035973,-0.0463687943761769,1.001425751059373,2.7313747026963764,-2.521655961935164,1.6607428672334397,-19.48557152996539,-40.911475936910605,-39.68091566756099,-1.5588178295545383,5.352536038367962,-10.35347350275638
2024-06-18 04:38:44.91,-0.0920152080794102,-0.0433994216038723,1.0094832694230975,2.705378398143379,-2.2662579472017472,0.5794022567069237,-20.736197760442877,-40.42519992189423,-35.16426779038002,-1.348122420894437,5.101937206324418,-10.211525682376395
2024-06-18 04:38:45.02,-0.0879274823152857,-0.0385334460237585,1.0205249478060066,2.428843317120005,-2.374823926581693,-1.3812340223358432,-20.267412292183018,-41.118725699142615,-38.02739943527737,-1.188076237531327,4.853164980537827,-10.2608560548619
2024-06-18 04:38:45.13,-0.0837083600562474,-0.0336991351780981,1.0139422851149198,3.769745469792263,-1.6691675085550777,-1.893632738380374,-18.798087102174,-42.81330067359528,-43.81226267881951,-0.9695774812304868,4.626447883673757,-10.46869629861647
2024-06-18 04:38:45.23,-0.0787702287511992,-0.0287554119578266,0.9921880260148452,5.10674405944704,-0.5134355440243339,-1.1345704573020343,-18.094351038235992,-43.79716625745951,-45.22493488051938,-0.6232648217736986,4.521275115413852,-10.63816446851252
2024-06-18 04:38:45.35,-0.0732488400827219,-0.0207471801598643,0.9758521669420028,5.612852479256013,0.2303033852866573,-0.291415053407573,-17.960694417785913,-43.66238327419376,-44.4513901645888,-0.122685752118702,4.505888548217996,-10.734125544670457
2024-06-18 04:38:45.56,-0.0726773922515292,0.0002178988452173,0.9878430430560382,6.66124273907107,0.9452349511460574,0.475118611796148,-17.833917426806398,-44.49987996283761,-43.406213017665216,0.9504824495536,4.57099538449927,-10.704798195677435
2024-06-18 04:38:45.67,-0.073887609704798,0.0107645950034965,0.990277464184916,6.352926426535374,1.6006257139465645,0.6836076236610713,-18.48465120704289,-45.09295140111092,-41.60289777837462,1.593832474496928,4.667462418023281,-10.63594608428819
2024-06-18 04:38:45.78,-0.0764027674474611,0.0218822702061537,0.9937447675346616,4.060360674393356,2.8929465526886062,0.6266298454904144,-19.03701792183497,-45.03119979721439,-39.09072924406406,2.1037348635311344,4.866810150937648,-10.562157100480349
2024-06-18 04:38:45.89,-0.0812146948491873,0.0327553198890384,1.0028373619267037,1.086928335403652,3.6194739768978863,0.5697009320738418,-19.55460684999557,-44.33020274604509,-35.19217707643896,2.3214913388548792,5.1834901817712336,-10.497304948855962
2024-06-18 04:38:46.00,-0.0886187246763143,0.0413375161454509,1.0189986463874836,0.4178902875935982,2.6953559543545804,0.6758316403845757,-20.48950019982093,-43.89868900098604,-31.21338420991088,2.364991597742124,5.478540047982207,-10.423087437420817
2024-06-18 04:38:46.11,-0.0951939874468953,0.045557907967924,1.027809801565148,1.414516380246103,1.5803355902294167,0.3740611925403407,-20.69749644909784,-43.911962251459,-30.08501245937841,2.47644417043686,5.654101733455033,-10.357635661785766
2024-06-18 04:38:46.32,-0.100562757023403,0.0492853934011047,1.012163376555646,3.593753379414724,-0.3899898567948774,-0.4241624774967323,-20.373799946224544,-45.07047900960913,-32.061862246661086,2.97481549666366,5.702151838692436,-10.37325399617468
2024-06-18 04:38:46.43,-0.1016274440065254,0.0539138945846266,1.0040522985240186,5.821444935128249,-0.4254338517559061,-0.418642899135546,-18.805113291612084,-46.59209198580084,-38.01448645117671,3.469436245113526,5.65524240547279,-10.436608433780256
2024-06-18 04:38:46.54,-0.0998545805598116,0.0593225122397985,0.9846957407571988,7.085503831346974,0.0851829340406937,0.1760598926749225,-17.696688309167996,-47.9784645807393,-41.03040351503452,4.149678791583138,5.643099730511727,-10.455899290719104
2024-06-18 04:38:46.65,-0.0974638504000639,0.0680302288864034,0.9616738501300272,7.412646893207405,0.8069077962206704,0.622127914821228,-17.42367848595833,-49.60007063532882,-39.68329190478743,4.892641870107506,5.699427650192825,-10.412168324909045
2024-06-18 04:38:46.76,-0.0983670396506806,0.0822857777983522,0.9702225607132012,7.460777418259519,1.4812653906524902,0.8409198440380652,-16.55565066736449,-49.89122846291029,-38.48980055863889,5.647787871414507,5.825073801075146,-10.329161426754128
2024-06-18 04:38:46.87,-0.1009517033472954,0.0967864202048707,0.9780354324137874,7.283289576220621,1.48978981609994,1.1026065587208247,-17.10585223998493,-49.56229331269995,-35.10442388934385,6.386463374428535,5.979003289775394,-10.227596888207838
2024-06-18 04:38:47.08,-0.1047151032422608,0.121325971089492,0.9817895336173824,8.09582279897981,-2.277049241661428,1.5193213099539542,-21.00712868197343,-48.97212468406674,-26.439951566511372,7.800805939294343,5.836765493135114,-9.957005090751103
2024-06-18 04:38:47.19,-0.1030177872496961,0.1382538349334077,0.9862133245642772,7.453492605605629,4.7069732141727725,-1.163249225638279,-19.65837301349689,-49.56829542244122,-30.282673762002,8.606952027519625,5.907068414287838,-9.920920307617298
2024-06-18 04:38:47.30,-0.1028685709997865,0.1554700102177711,1.0013601112952308,7.756776276157893,8.68814959712107,-2.7545139229019004,-18.96701859848059,-49.90440065457658,-32.83122033306162,9.389432239831349,6.734947384540215,-10.175635816655122
2024-06-18 04:38:47.41,-0.115691629408032,0.1695969994114891,0.9901359142028628,4.666167733754469,5.441022559553758,-2.2963675804916552,-17.761258750991203,-50.687345940550514,-34.643736103564905,10.041025010559844,7.440863175772772,-10.4654398580727
2024-06-18 04:38:47.52,-0.1299876811141399,0.1808151328221168,0.9498576530457368,0.842502170884702,3.294566860401483,-2.15403335319104,-17.442861290382705,-51.194441693350186,-33.82206750189176,10.327324701756709,7.890267335318982,-10.731474497023443
2024-06-18 04:38:47.63,-0.1412424729148675,0.1902065262931947,0.95279894949439,-2.724352508812463,0.8867502198811437,-1.8181890673545344,-16.87366087775424,-50.90031575756242,-34.142789721427754,10.284844262602215,8.148946560081514,-10.970373558066946
2024-06-18 04:38:47.84,-0.1471602975863631,0.1811176051448187,0.9579978712465396,-8.26982725798068,-1.874923893190116,-1.994040252419525,-17.19640037144526,-50.33558694748055,-36.00081128943157,9.329148348151438,8.135740001906846,-11.352583107894189
2024-06-18 04:38:47.95,-0.1460379326665191,0.1708524256254724,0.9629327356936752,-9.765325718737682,-2.645209153905572,-2.3011739918633323,-16.425142286081694,-50.65476623075736,-37.10328804875228,8.445482159987646,7.967993261391219,-11.603714707458312
2024-06-18 04:38:48.06,-0.1432813581696028,0.1549177167134491,0.9713559823004604,-10.106335784711662,-3.3600267760552773,-1.985556780857267,-16.028371394690637,-50.57567467818891,-38.11039369865185,7.470993968891929,7.719957789646043,-11.853779394867177
2024-06-18 04:38:48.17,-0.1400878226979635,0.1370217404362066,0.9790796698643796,-9.688712416557165,-3.929760491383119,-1.246880973198694,-16.072314570947132,-50.259522243756976,-39.27014757273911,6.507822372864131,7.394005621105884,-12.037465562318737
2024-06-18 04:38:48.28,-0.1339567664094181,0.1187202222567477,0.9856760969194904,-8.584077264747094,-4.071786209963934,-0.8581940909737448,-16.109915737917518,-49.876165818709104,-40.51202138512231,5.626184474609936,7.024561308605353,-12.16328240148892
2024-06-18 04:38:48.39,-0.1266675924784194,0.1006568078568021,0.99143916459965,-6.769339373673967,-3.577760036767063,-0.4709170537957742,-16.28917146735673,-49.58299081793636,-41.213777192365065,4.888134220547969,6.664734021473246,-12.242755580907405
2024-06-18 04:38:48.60,-0.1127660929180659,0.0680997754907728,0.9950233846096852,-3.8395355121778367,-1.513187517478194,-0.2483727785146929,-16.483585009282464,-49.28225485284033,-42.09200698140145,3.9293112530968832,6.228760986782123,-12.309073830669425
2024-06-18 04:38:48.71,-0.1069134895360071,0.0544623216922477,0.9945585199370016,-2.913044774113757,-0.9057572618982876,-0.1542691441841768,-16.515164974585474,-49.042659068923086,-42.51435687277631,3.541594577031116,6.111491303491151,-12.334663479096836
2024-06-18 04:38:48.82,-0.1030557421231236,0.0450974006919422,0.993656671162964,-1.9755291427842088,-0.6362241200519202,-0.0373085611927302,-16.548906266662264,-48.903042027495694,-42.80452884508574,3.2178555412602017,6.021546443415176,-12.34693131809764
2024-06-18 04:38:48.93,-0.1006046428746694,0.0409615267733042,0.9928750871288814,-0.9032383986842054,-0.6119913181540957,0.0679598558729547,-16.585012415077443,-48.95233152525336,-42.86289767313996,2.9927537226594856,5.9371213077664216,-12.345879930693547
2024-06-18 04:38:49.04,-0.0980181506580679,0.0390771427325051,0.9920546958496405,0.3503237754239658,-0.7029518759075514,0.2638493703060393,-16.65227294996356,-49.027890858381454,-42.8123913757758,2.8981955958474925,5.837527080586424,-12.330104892111862
2024-06-18 04:38:49.15,-0.0952177675250404,0.0383955020182106,0.99243134255917,0.6365006266400556,-0.4309271165886099,0.4812954399682164,-16.869370685441606,-48.80047497155918,-42.51443964436529,2.907848049449149,5.737282930366368,-12.28892083846638
2024-06-18 04:38:49.36,-0.0924830565637895,0.040543476733075,0.998588173489106,-1.4656088307585586,0.2874902687324202,1.0156339274613484,-17.72745793035067,-48.39913154313715,-42.79729224189237,2.700607500394859,5.660044102058386,-12.132156698101324
2024-06-18 04:38:49.47,-0.093760790165273,0.0398375808293242,1.0004073347157192,-1.680161331477591,0.4627973582511169,1.1399207483443448,-17.60882141217228,-48.0733735443225,-43.01374764177208,2.515329780846004,5.658372890576006,-12.0131261374896
2024-06-18 04:38:49.58,-0.0954624180178931,0.0363199941757657,0.9994939441983296,-2.1987168927071314,0.6515017515499063,1.068163589464603,-17.878537613399107,-47.92931041818746,-43.2710474603236,2.2986912055117648,5.685399060145259,-11.887104362149648
2024-06-18 04:38:49.69,-0.0976398788852319,0.0307199577774163,0.997374595921148,-2.93567991253651,0.8225043334878737,0.945611326452113,-17.96402050122442,-48.08101664379855,-43.53392728120385,2.003471489982576,5.7416248716571525,-11.772198493337058
2024-06-18 04:38:49.80,-0.0998463030900407,0.024936638759952,0.9950950235881054,-3.582959231625771,1.3039533302051411,0.9214479316352922,-17.82610636350807,-47.89995353262032,-43.913672064654335,1.6346220940986511,5.842038659384785,-11.66675109843178
2024-06-18 04:38:49.91,-0.1016616501463718,0.0182507731767924,0.9937684715282868,-4.6568822966360015,1.9863522651171943,1.0134080974354478,-18.000000394531586,-47.578258047163125,-44.3690718051144,1.1802384700647788,6.012816348836842,-11.556996008631412
2024-06-18 04:38:50.12,-0.1063033960788528,0.0014415261368996,0.9989252989897238,-7.549646910405536,1.9151060784712457,1.1955236281122852,-17.691406430673005,-47.82094579557198,-45.25055225269763,-0.0940064617613392,6.407965229111662,-11.314244376727526
2024-06-18 04:38:50.23,-0.1093798762829419,-0.0092791270931893,1.0033426891474144,-7.878351653997224,1.3944488148693932,1.3364935606262884,-17.5852585786269,-47.422017059949695,-45.99629999778348,-0.8755716390491334,6.555385424578782,-11.177770271971536
2024-06-18 04:38:50.34,-0.1111604607745836,-0.0204196648545891,1.0059795530235414,-7.058947742151208,0.7220739581494029,1.6618179747938162,-17.870321178515383,-47.0013150137305,-46.089718572245786,-1.603112135032907,6.636394162737756,-11.016767479864203
2024-06-18 04:38:50.45,-0.1118817840149088,-0.0331406875552636,1.0077504187615625,-5.643393744373974,0.0422148861156649,2.100585271813134,-18.312868672221587,-46.799805025664746,-45.89063822391704,-2.241109490121041,6.650482216129472,-10.80454438237654
2024-06-18 04:38:50.56,-0.1118461121779135,-0.046777893445265,1.0076232894637334,-3.69113890143474,-0.605729229162262,2.5189910471747035,-18.75072502452508,-46.428815184597234,-46.11335780450612,-2.7082330670947754,6.597962579792799,-10.54370968968123
2024-06-18 04:38:50.67,-0.1110904359914883,-0.0578105981640423,1.001838314516908,-1.2562769431712877,-1.3301351370106684,2.956206213031615,-19.123752971777424,-46.50181070424652,-46.52707415156149,-2.957036889358297,6.479860031260526,-10.235012462745342
2024-06-18 04:38:50.88,-0.1075597801860825,-0.0694121892185397,0.9847051555328656,3.585429260022553,-1.3475993798921768,3.443139344453219,-19.922407794679994,-47.90358661573819,-48.90206620804285,-2.7897384984659777,6.170728218185633,-9.541573600917124
2024-06-18 04:38:50.99,-0.1055795155653741,-0.0698514124203562,0.9740063223084072,6.147003204791754,-0.5790916249025592,3.4120853011019223,-21.002345583675517,-49.439363390381935,-48.51482934573078,-2.3764569158115942,6.092080346872743,-9.16793356550626
2024-06-18 04:38:51.10,-0.1061655462420243,-0.0644768015807384,0.9720211900771424,7.9504460540246304,0.2172407487893792,3.4146324531091583,-21.641933553488872,-50.1951644077653,-47.64695160197869,-1.783778988641569,6.10222153414492,-8.809824522131935
2024-06-18 04:38:51.21,-0.1090190164313002,-0.0529421464006723,0.9815338676443764,8.631017100703785,1.2901347824172165,3.5549523554607294,-21.87851497840709,-50.7263013110235,-46.5990669365269,-1.0345648935946885,6.217304700396511,-8.42745742896949
2024-06-18 04:38:51.32,-0.1108459938995643,-0.036615346945527,0.9897124859927888,8.548726794793987,2.132743957531265,3.563739641303352,-22.128882169041432,-51.17322564439823,-45.6676316817631,-0.2452446809500215,6.42825605497357,-8.038852466198653
2024-06-18 04:38:51.43,-0.1126598399948449,-0.0157372378671063,0.995638006253932,8.401744326249316,2.5999175914846537,3.335823466009848,-22.34818724613717,-51.670300250949616,-44.75469101215912,0.5633046471283795,6.683758778510739,-7.66393485344499
2024-06-18 04:38:51.64,-0.1161487041376577,0.0247524265509819,0.9942697278178528,8.52645418892261,2.8718596773223464,3.1542274502737837,-22.70311733118617,-52.71643367249391,-42.69656940518495,2.2123591803623697,7.194769747863934,-7.001486231422784
2024-06-18 04:38:51.75,-0.119446433087123,0.0402680776161544,0.990863426789436,7.761032854131507,1.971284377588565,3.015738845076775,-22.927325288184253,-53.08101532604676,-41.75335586879225,3.080136972833633,7.396772322524212,-6.668754264519794
2024-06-18 04:38:51.86,-0.1264300485911618,0.0547959043339463,0.9886873338292144,6.95522749851486,0.4735764879444748,2.7852533396157173,-22.656302135000644,-53.29099474870488,-40.34608555329975,3.816181057142039,7.470321910476199,-6.3749962966165645
2024-06-18 04:38:51.97,-0.1328682780322779,0.0701327931935634,0.987706620258212,5.578705729326199,-1.277753522642606,2.6757524753952038,-21.83700650718862,-51.86614968915176,-38.492839324918926,4.501397583719543,7.395074814566843,-6.073811103884648
2024-06-18 04:38:52.08,-0.1347888462288178,0.0820705280749098,0.990926065739521,3.610093568903064,-1.8386498557319488,2.6801745827334456,-22.78124962407723,-51.1616018496619,-37.01926716507171,5.01351649218664,7.223120907334147,-5.7745489954053335
2024-06-18 04:38:52.19,-0.1335325735916947,0.0903498980944711,1.000947131510859,1.9189927966091804,-1.9453213636650408,2.843838284659733,-23.497468357084504,-51.498556069912624,-36.03868639775576,5.346993684476224,7.035979632614845,-5.4749129626030655
2024-06-18 04:38:52.40,-0.1235541326577535,0.10040332491687,1.0011525826829168,-2.0481642703033103,-1.2486842593704832,2.971569471632306,-23.615107925898105,-51.98673865382428,-37.04087965935668,5.419208330597152,6.699487650132229,-4.865596960473245
2024-06-18 04:38:52.51,-0.1168948261729867,0.0998373565119355,0.9889128056778412,-2.553011971603498,-0.4317830016409482,2.671290746756576,-24.3842831877906,-52.545663134855324,-39.3255157535388,5.240496439713827,6.59553509834413,-4.559912791236052
2024-06-18 04:38:52.62,-0.1121699546843841,0.097552389916896,0.9762277254200636,-3.1282225558500647,0.177418203181884,2.2208241728361977,-24.846779519254028,-52.10861969538083,-39.37889263913074,5.033779149902649,6.562915186238863,-4.293336458956968
2024-06-18 04:38:52.73,-0.110367864959973,0.09591939482424,0.9705116570601068,-3.424182978551443,0.6101177496813108,2.0840202568428365,-25.206304560192734,-51.41665344081145,-39.89234458842749,4.801346655734912,6.573883288218738,-4.074289534580592
2024-06-18 04:38:52.84,-0.1117727643544178,0.0922698543567129,0.9797046639135444,-2.6793232311457427,1.33729753024914,1.897676654264273,-25.58755058827561,-50.8486722456947,-40.36732849808178,4.583877855418438,6.649930751973119,-3.859177265965926
2024-06-18 04:38:52.95,-0.1128701831985825,0.086130117171317,0.9852948278928272,-1.8578508335345427,1.6764444364834483,1.554753671873959,-25.858439231861244,-50.56283297361912,-40.49136845271554,4.447078802727938,6.783431333759929,-3.6737197651820632
2024-06-18 04:38:53.16,-0.1192655349124968,0.0749673574664044,0.9948359557072176,-1.1600217605802956,1.3927724372130836,1.2953670249315925,-25.950087263382784,-50.32403996403833,-41.17109343717541,4.252955646076548,7.035986915795809,-3.3741918594496627
2024-06-18 04:38:53.27,-0.1230666797138081,0.0692618044907862,0.9970396876815308,-0.6166664900312058,1.0812077837912988,1.338761925210073,-25.97588879897272,-50.4352214532238,-41.23280404721412,4.16734169381791,7.14251160554868,-3.2260310940701458
2024-06-18 04:38:53.38,-0.1248620309880224,0.0658203944090067,0.9958093606124396,0.1547204224891609,1.0504730961791025,1.4153345925115937,-26.25852143006957,-50.490986970341645,-40.99889002595416,4.134704352678567,7.233139660281748,-3.077269643842432
2024-06-18 04:38:53.49,-0.1250016282335436,0.0652999357695626,0.9928403299522875,1.0631232180565506,1.4481941112507752,1.2818286279626727,-26.363315715664985,-50.43795521753314,-41.07211662462364,4.18338801497324,7.337998849096347,-2.9426112034857383
2024-06-18 04:38:53.60,-0.1249911112962684,0.0675383068402605,0.9879903456685812,2.2909845466917917,1.794913477904616,1.2162242911959191,-26.43842688246785,-50.5207875682033,-40.51851158817207,4.351803973634322,7.4848096435814595,-2.807682218037081
2024-06-18 04:38:53.71,-0.1250674630611105,0.0710998923629929,0.9825793328270848,3.996621875984622,1.5084037760989886,1.4453970878902542,-26.56825229213686,-50.45430311927749,-39.69626561010632,4.678202051721026,7.623680039818774,-2.669421450793745
2024-06-18 04:38:53.92,-0.1310070401429086,0.0888104830367221,0.9815061165882591,6.811410536761101,0.1197658261691044,1.716116327168291,-26.853715230995867,-50.69249905311147,-38.490033681999805,5.808996600778437,7.683631181677926,-2.3167644752051544
2024-06-18 04:38:54.03,-0.1334900058977493,0.0990912238977523,0.9842312659142484,7.464739798159164,-0.0861062680113652,1.5879622177273771,-26.979475985073822,-50.844408556216536,-37.24159168144737,6.5613295888617085,7.647920580804465,-2.1296405931977165
2024-06-18 04:38:54.14,-0.1353783330460096,0.1115112524190916,0.9869752272650868,7.851054660262169,0.0049119121405385,1.6625202607019915,-27.29195020097165,-51.19344413403764,-35.99955481830842,7.354502621601388,7.622515399479756,-1.9474875973710088
2024-06-18 04:38:54.25,-0.1367617343277044,0.1250045156333745,0.9872111581931392,8.19932432402338,0.1967683568295907,1.938731891064405,-27.492779133901035,-51.4242479082625,-35.181662157695946,8.149724492065284,7.620426963174878,-1.7525354966496522
2024-06-18 04:38:54.36,-0.1368741413787435,0.1400019370613273,0.9841634299377368,8.432921160542682,0.3799566013298375,2.211442594603123,-27.65097591709322,-51.560222657205934,-34.21720431453791,8.979804609262558,7.636868416037907,-1.5265062842853436
2024-06-18 04:38:54.47,-0.1363192121859284,0.155025857403183,0.9801246634370686,8.395522812160264,0.3152567735420646,2.380374255687142,-27.90229096889599,-51.63910103959069,-32.98200300652395,9.851671994049289,7.652996654160685,-1.2680065547259896
2024-06-18 04:38:54.68,-0.1337069740056151,0.1887263194673774,0.9728262549478002,7.827092307068115,-0.7908472636877524,2.5431343845442638,-28.362778917609774,-51.91403558536764,-30.94378504572669,11.510801538499162,7.538476830772172,-0.7374115701461144
2024-06-18 04:38:54.79,-0.1310245389669942,0.2074911874035699,0.970732788932162,7.725927922835004,-1.5218987174842455,2.756468650001106,-28.71369114503611,-51.919000351710736,-29.66201870966031,12.368331778159105,7.354176183159329,-0.4394283693806978
2024-06-18 04:38:54.90,-0.1285458152802279,0.224221278744454,0.969908087271973,8.154626139016806,-1.9226865000055224,2.994744387396328,-29.151312179070334,-51.992940995130354,-28.15001860259553,13.261945188010316,7.10303293197441,-0.1173645570007443
2024-06-18 04:38:55.01,-0.126061764501992,0.241497201483003,0.968366493311086,8.61339262989095,-1.843816853699566,3.095328217315329,-29.48530941854507,-52.026674767958944,-27.017710704636357,14.210916641190511,6.83736598935571,0.2163311290854674
2024-06-18 04:38:55.12,-0.1233140091232617,0.2590394219610126,0.9645885178808886,8.290686359638237,-1.384144590948083,3.063734105520058,-29.7294947859076,-51.98663812776024,-26.241942272127552,15.146314392722443,6.612718664311308,0.54182349378643
2024-06-18 04:38:55.23,-0.1199189753048345,0.2747823365377999,0.9585506877124372,7.104626518079705,-0.8475800128366746,2.842951040995005,-30.04559919247305,-51.97668588936401,-25.16099717841245,16.004052454756483,6.445705482239477,0.8540967106238965
2024-06-18 04:38:55.44,-0.1121590151458772,0.3026302752771782,0.946587776496136,5.048448456861367,-0.4748643099309046,2.249861610313104,-30.57240864673117,-51.51974623092777,-22.992437710569344,17.355998822155826,6.216005300450761,1.3870530495958215
2024-06-18 04:38:55.55,-0.1077867175750904,0.3181688188844154,0.9442859811611688,4.698437433109401,-0.7400891925858659,2.225422548291023,-30.713027547887528,-51.38372233260332,-22.469510066679696,17.989342703355835,6.076828605236557,1.6374581755789508
2024-06-18 04:38:55.66,-0.1038774230271659,0.3279980407286696,0.9446764570124188,4.351025601213675,-1.034689266813517,2.2458546434181867,-30.86872481274917,-51.33174803805694,-22.01372513259416,18.59655280450917,5.890507023455515,1.890143335461679
2024-06-18 04:38:55.77,-0.1017980123637207,0.3347901326165602,0.9466605513946876,3.602049922892883,-0.9701677177573188,2.014605899587617,-30.950619596189156,-51.09482279900757,-21.856835920516232,19.121784312240635,5.69100451155971,2.1300633772704334
2024-06-18 04:38:55.88,-0.1001772308345807,0.3411877820980933,0.946866052499222,2.6878540339771475,-0.5231194384297613,1.6201006121831438,-30.9874233365924,-50.82141323955853,-21.900567223297905,19.52053392303004,5.540188229217993,2.3213715546382425
2024-06-18 04:38:55.99,-0.0987173736683852,0.345897497115982,0.9449737225247192,2.0232267990323884,0.0557349179618733,1.1813008413931942,-31.023067445152535,-50.74580596667305,-21.879711591001133,19.813303743656707,5.465265529663358,2.463999145058674
2024-06-18 04:38:56.20,-0.0965994100742337,0.3518237851450221,0.93730774950371,0.3470484446922512,1.1257185518132111,0.3571830775344294,-30.82888569451396,-50.436654008836456,-22.587267283326845,20.19093920998945,5.517867743486258,2.6330864394600795
2024-06-18 04:38:56.31,-0.0959850928373148,0.352821398488885,0.9343516390972222,-0.7572980158341842,1.1868561258863632,0.2515698085587128,-30.65531917178829,-50.220891470375534,-23.156595442548497,20.230531934409523,5.610578399401291,2.665331761213981
2024-06-18 04:38:56.42,-0.0961614686599659,0.3512980849995214,0.932088364565575,-2.2882672167290483,1.1377039606875683,0.3398325536774506,-30.43284850803812,-50.15606859033635,-24.253600853605164,20.1320606197126,5.689982521953145,2.698510990152008
2024-06-18 04:38:56.53,-0.0973027864273658,0.3460747976276203,0.931285184161403,-4.792251261331653,1.311098620129283,0.1871817261872683,-30.033661887443927,-50.11203520279145,-26.422481988038356,19.818652321982096,5.773087806817666,2.72299244244465
2024-06-18 04:38:56.64,-0.1005210848974127,0.3341032354476251,0.9329617178315228,-7.985571127934338,1.738966268232891,-0.216502095144232,-29.60240135607521,-49.85002837599677,-28.535341623834032,19.19971804447684,5.90087278405516,2.715672622320754
2024-06-18 04:38:56.76,-0.1034446726828507,0.3173126737366613,0.9369914177260869,-10.662388168228834,2.0384782729406594,-0.36628238440794,-29.43480411506061,-49.61470650969977,-30.69152908416727,18.199165377681734,6.089129266628134,2.675663903314238
2024-06-18 04:38:56.96,-0.1079937069632952,0.2920356449957319,0.9476214070861064,-11.231696222577344,1.9001883984083403,-0.2190486425353069,-29.01355476896892,-48.97750274995907,-33.54037369766837,16.071200176277358,6.452481050114202,2.597632197281498
2024-06-18 04:38:57.07,-0.1107908088814548,0.2753484713376323,0.9549252350478052,-10.200651890209867,1.631275623078295,0.0355790747900497,-28.9522582484714,-48.13976474688412,-34.61981957353207,15.012360788695116,6.609474865689347,2.5774154166672814
2024-06-18 04:38:57.18,-0.1132378000202259,0.2574017320865553,0.9603441183460918,-9.58669606589361,1.4184687636773998,0.1856727940792712,-28.98103999912074,-47.90700337435522,-35.58535706423282,14.044938034983112,6.732373501298994,2.5817095205909464
2024-06-18 04:38:57.29,-0.1166272094196192,0.2364108139158907,0.9644841614409486,-9.800778935353424,1.451967112022554,0.1056869024690605,-29.069995941530863,-47.70717211740646,-37.29206601593654,13.06809412480682,6.853401288042796,2.58569509439262
2024-06-18 04:38:57.40,-0.1203282926260705,0.2122231136385116,0.9684263556160894,-10.472586115709026,1.58324068340736,0.0273358936570282,-28.78976739298855,-47.03208299756022,-38.84328873012136,12.00139281081114,6.999021039017826,2.5777019071436924
2024-06-18 04:38:57.52,-0.1250763132599923,0.1874287631392883,0.9714574475002394,-10.78372545050718,1.7352166339935828,-0.0563703137206207,-28.530527917396316,-45.72405738921769,-40.35054549027168,10.760636665838875,7.186090051524214,2.5610647570866227
2024-06-18 04:38:57.73,-0.1310630124309571,0.1503236735036056,0.9791300194709972,-9.341277490937555,2.193824510800819,0.1786796438610619,-28.27901332531402,-45.09849264083238,-42.33515953370825,8.711630975983002,7.584272898986672,2.551121298654632
2024-06-18 04:38:57.83,-0.1332977506535761,0.1332001144785238,0.9814367019976258,-8.177204351999354,2.134044668993893,0.2523170616189962,-28.38523291514649,-44.57792674850165,-43.47906290210989,7.833436917825168,7.7908874937265296,2.570260903546836
2024-06-18 04:38:57.94,-0.1350328552071204,0.1167730002305197,0.9836926732754931,-6.86479758276603,1.7341081675862318,0.3834049787024738,-28.09565963325628,-43.95794553474696,-44.5464722312407,6.985467097356923,7.982134664684625,2.6097853655502257
2024-06-18 04:38:58.05,-0.1358688273593201,0.1023701394867546,0.98409960186166,-5.429615134486381,1.0269379094473845,0.5049031119661365,-27.93117277078928,-42.84410074223034,-45.55190580843588,6.282212312814441,8.098710996194802,2.66331154143742
2024-06-18 04:38:58.16,-0.1360437785443516,0.090947418295894,0.9848601036336112,-3.996861398049831,0.2625200228898335,0.6728647884707359,-27.93651990983844,-42.37337138048612,-45.98625772408164,5.76707091018721,8.125594228364521,2.7235862616959987
2024-06-18 04:38:58.28,-0.1367933546841935,0.0802153487413009,0.9857391843616596,-2.1833434508082954,-0.4624143597912397,0.7161833544532697,-27.854679763152905,-42.19326214279354,-46.03798933285911,5.34415424102883,8.066930053989209,2.80520529832339
2024-06-18 04:38:58.49,-0.1384578588266163,0.068378692289714,0.9879857436034288,0.6440804221251712,-0.7830199747244664,1.1920533406213387,-28.32422911564442,-41.90309373038395,-46.91585202322256,5.058450667717236,7.862387405158247,3.010151703702367
2024-06-18 04:38:58.59,-0.1389306487656799,0.0656202491474565,0.987784446912948,1.4990788958566896,-0.6067346077293063,1.4804297268299536,-28.35039636984152,-41.527597011257285,-46.83497563484319,5.076834607773554,7.791883457373522,3.137097722246441
2024-06-18 04:38:58.70,-0.1390158588856915,0.0646458496298186,0.9866847150268668,2.212945643545497,-0.399047073064484,1.6277483442131773,-28.456287989718817,-41.907088262956805,-46.50999882957911,5.169786323916004,7.741644457753003,3.306855489055728
2024-06-18 04:38:58.81,-0.138930412438144,0.0660148182923748,0.9852292947612658,2.8673435158885003,-0.3123555448389309,1.648943112766129,-28.448795087879702,-41.89579953365379,-46.41832724024488,5.329622410597801,7.711392197432514,3.4947599939928136
2024-06-18 04:38:58.92,-0.1382067549675204,0.0698919296895538,0.9843647126544391,3.475800269742456,-0.3147908598305315,1.6300371420901487,-28.520982657795876,-41.62309966209969,-46.09022237963719,5.557314288790836,7.684368209079225,3.685073640527043
2024-06-18 04:38:59.04,-0.1366127584929657,0.0765489270374876,0.985355517470782,4.075839163687279,-0.2780762767292954,1.478778439993328,-28.874122417707905,-42.34821046271635,-45.49659389224714,5.85964640431374,7.654020226928719,3.8700264541457385
2024-06-18 04:38:59.25,-0.1327163701596455,0.0945708881708621,0.9903121088838996,5.346815389926236,-0.0427685775959838,1.352995381126369,-28.98454618961711,-42.79912029403518,-44.24524878897132,6.638059224139354,7.604807938606467,4.162270652019965
2024-06-18 04:38:59.36,-0.1299792565575333,0.1062379346506966,0.9906739240530852,5.99903890434091,-0.2156829479342638,1.3693054771900344,-28.98417477134347,-42.99610200341748,-43.88521958994809,7.178190035094371,7.560195257116897,4.3133330950660005
2024-06-18 04:38:59.47,-0.1278707830420418,0.1168802409138082,0.9891942483897378,6.495139717224501,-0.6349810680476584,1.3666798163979557,-28.9661342912487,-42.90483949630696,-43.261232897077086,7.764749274348692,7.476136429735138,4.457782220097772
2024-06-18 04:38:59.58,-0.1261278526474842,0.1298573282874725,0.985400408443004,6.837455309894909,-1.0395008301617226,1.2777418401542564,-28.950270134051515,-42.65712066827986,-42.44765391896585,8.410849131177697,7.3410298723067,4.600842832826868
2024-06-18 04:38:59.69,-0.1244439859921994,0.145008741168069,0.9810055227950396,6.922455621260657,-1.1719063309079365,1.1080420451618669,-28.99692356968944,-42.67363010607647,-41.74136060965162,9.116751381885855,7.175630404567322,4.735751105558758
2024-06-18 04:38:59.80,-0.1231749077433976,0.1590269660419112,0.977792124226002,6.740340697816329,-0.9656264901960367,1.039441202488776,-29.104987044870608,-42.86302378075918,-41.06342895748215,9.83654708596602,7.023934599607763,4.85708783610285
2024-06-18 04:38:59.92,-0.121596405960988,0.1717374967981061,0.975627472172136,6.524736773738064,-0.6314088300199011,0.9513867058648464,-29.205537775649407,-43.01107707104274,-40.39045984205185,10.575513278340074,6.9067227297741765,4.973622614626351
2024-06-18 04:39:00.14,-0.1196560361584157,0.1931841983120796,0.9750338419430418,6.162417624090237,-0.7356945509585927,0.5364075025580576,-29.225376721322284,-43.48321301893999,-39.16926301170407,11.86580595705539,6.747014960313347,5.131934903185456
2024-06-18 04:39:00.25,-0.1184341642000212,0.2051133646106794,0.9743999872191536,5.638011224273992,-1.0071984743946922,0.3764527831836076,-29.2026563442235,-43.59150515901802,-38.64394882837411,12.477296695468585,6.6391293817644295,5.179026145857545
2024-06-18 04:39:00.36,-0.1166920635315913,0.2169775614923283,0.9722407437249628,4.845090296180606,-1.0005472002048252,0.0583363701053864,-29.19343198838824,-43.55449456888682,-38.25307805906565,13.00685224995256,6.526757743515687,5.195488496677762
2024-06-18 04:39:00.47,-0.1151200065692617,0.2278173570155109,0.9688951919982132,3.925456292215257,-0.6706350378991999,-0.2780259380716666,-29.2171707721639,-43.64529633862484,-37.94494428550185,13.441442001238505,6.444367056831244,5.1796055663193625
2024-06-18 04:39:00.58,-0.1141438975724517,0.236510064031195,0.9656612056005776,3.061536670103285,-0.2054619508794429,-0.5447554548521915,-29.186132249516863,-43.761237697422125,-37.69020102914447,13.8070376776983,6.412682617785208,5.13040671850405
2024-06-18 04:39:00.69,-0.1133274867344876,0.2446460839759319,0.9630288708389724,2.455515147543041,0.1504953563072194,-0.766434670771979,-29.074546044872086,-43.79242191179004,-37.39360846124087,14.121823220836058,6.430988551163348,5.0524274687035735
2024-06-18 04:39:00.81,-0.1123353083723786,0.2526066579537031,0.9613840829233796,2.0491104145149164,0.2221018820683513,-0.97993064947035,-28.902572110947236,-43.755716928353706,-37.16664305403742,14.42516331090016,6.476980422778315,4.941055472938564
2024-06-18 04:39:01.02,-0.111045127275953,0.260550871906319,0.9619583886798432,1.3121603133910096,-0.1129647656166515,-1.307827083555987,-28.62959156926253,-43.80006272528394,-36.99324778260179,14.833676102372571,6.512788660838339,4.7009588443008905
2024-06-18 04:39:01.13,-0.1112921503659499,0.2618586840970331,0.9616819190162124,0.6392272152119483,-0.2315323544276587,-1.51861710754712,-28.4204535403201,-43.662660765094685,-37.054341126409135,14.968612808133091,6.504603543616215,4.538128110238626
2024-06-18 04:39:01.24,-0.1122590983710103,0.2620477382204577,0.9609399730452975,-0.2186877454938469,-0.1478228797339681,-1.6661514295064392,-28.262450638681837,-43.57119263154059,-37.13379185473404,15.007346613907735,6.502789221265388,4.354869863620203
2024-06-18 04:39:01.36,-0.1137593767532245,0.2617656418903946,0.9600434641968516,-1.0793544582456145,0.0635084556656846,-1.7358475243628035,-28.06968019245172,-43.56715287290431,-37.34345311205334,14.94539891660316,6.529796068226771,4.152762605865068
2024-06-18 04:39:01.47,-0.1148450718517937,0.2602761795440875,0.9592518751673424,-1.6528933823739904,0.2511704342830306,-1.7964723868526846,-27.84310641560276,-43.245210253260446,-37.73664844767872,14.811979339970277,6.586038030922592,3.957486995311072
2024-06-18 04:39:01.58,-0.1157434103999398,0.2576967558653035,0.9590429370640025,-2.012836398489574,0.3687305301319385,-1.903679754907753,-27.674790696242194,-43.022874121493125,-37.90504025121176,14.62816855255377,6.663236449501174,3.7454766057390185
2024-06-18 04:39:01.70,-0.1167564724132484,0.2540019902426526,0.959810745029928,-2.124308781783218,0.3338187512130698,-1.9802526277086392,-27.47616946441945,-43.047091046991085,-38.174153106279824,14.401305749864418,6.752615708072707,3.499327639861711
2024-06-18 04:39:01.91,-0.1182752309716733,0.2481002817848571,0.9626106890423552,-1.7811617483700772,0.0590262683353063,-2.172901650959292,-26.98164236934731,-42.6644215661624,-39.00249656572899,14.042280150728573,6.865504763543741,3.052176958899885
2024-06-18 04:39:02.02,-0.1194289352178705,0.2433333550076423,0.9640471728580168,-1.5533923200301818,0.0055271033528505,-2.296007124748804,-26.77526479828231,-42.58828941630958,-39.19840721551119,13.868848719867398,6.912309831534383,2.786669854298831
2024-06-18 04:39:02.13,-0.1211755222230054,0.2383494182246728,0.9651141650658702,-1.4932072993808567,0.0215927537464676,-2.381665283614296,-26.566135284167608,-42.40396027708549,-39.44033957817568,13.697959657755602,6.961273803380865,2.514863212341564
2024-06-18 04:39:02.24,-0.1227847124845105,0.2332362799667069,0.9658232330805382,-1.61034491021881,0.060214649369887,-2.293939237181774,-26.35478973856928,-42.1436709995769,-39.734341399198726,13.519339392599068,7.014635621857343,2.2577749331658348
2024-06-18 04:39:02.35,-0.1237921285693281,0.2284299370639373,0.9659657673865872,-1.7356043461201156,0.1021068436974012,-2.187911918567909,-26.118658573662582,-42.03567300872733,-39.96236403956054,13.316013828501903,7.074904806329604,2.008155876529561
2024-06-18 04:39:02.46,-0.1245671174620818,0.2245849247460987,0.9654619217865494,-1.6838544494460954,0.0658393850419246,-2.013559659039271,-25.924964445818247,-42.102779355442514,-40.20990763254806,13.095785598915938,7.1358915554440285,1.759687482246476
2024-06-18 04:39:02.59,-0.1249942473146285,0.2203517124622197,0.9656804045866996,-1.27178262762228,-0.1389297051338635,-1.9633990199495064,-25.6972457661704,-41.84331508021259,-40.616212455229046,12.86400233776295,7.185492170214212,1.477076881673157
2024-06-18 04:39:02.80,-0.1250009582628784,0.2149946105138766,0.9677193269205528,-0.1854016762261809,-0.5647052101884186,-1.9476140959478003,-25.230783461459648,-41.45151584646781,-40.89797229066414,12.666079575622572,7.1810281991181215,1.0582768799628073
2024-06-18 04:39:02.91,-0.1249936769594834,0.212241621170438,0.9695150080098622,0.1894563944162348,-0.7401400206579598,-1.8661456287996123,-25.08227156150471,-41.35058696399182,-40.88883292630965,12.630353399621615,7.143407949989892,0.8410271774703848
2024-06-18 04:39:03.02,-0.1250218930442127,0.2099192852325629,0.9709668852742104,0.2575795328717548,-0.863215129835655,-1.8385517856622784,-25.06155794944825,-41.38945316601611,-40.82464266156393,12.607397494980836,7.091250638136204,0.6301910819958093
2024-06-18 04:39:03.13,-0.124871305484494,0.2084563282123849,0.9719084501974892,0.1137772739809186,-0.9187230514711514,-1.8091861485174177,-25.03933706637881,-41.40969853771347,-40.75681449744256,12.567263135433228,7.034316984998263,0.4247760813574519
2024-06-18 04:39:03.24,-0.1242590445877503,0.2078908759620712,0.9727721961944458,-0.0157374988689772,-0.9356960444036284,-1.7636072007517112,-24.83397489081134,-41.17081532130717,-40.97858865606682,12.506295536389288,6.9779249718312055,0.2233435643847592
2024-06-18 04:39:03.35,-0.1233129501433111,0.2074661348455845,0.9735942216818488,0.0161778600922774,-0.9447009134260732,-1.787135665210351,-24.589967999476443,-40.98024207734588,-41.123791534754254,12.438003162397054,6.922768295214272,0.0261036176525948
2024-06-18 04:39:03.47,-0.1215430787327386,0.207811514574448,0.9740151351884424,0.4417467507274648,-0.9173271432893298,-1.851465610210092,-24.44658525697914,-41.16496965565203,-40.9199168218157,12.39683609347152,6.848052657626144,-0.2423822063031052
2024-06-18 04:39:03.68,-0.1194548477132666,0.2095277343242579,0.9733623436802384,1.1711431898066094,-0.866650508373116,-1.812863089377296,-24.27992309052249,-41.25453500038014,-40.889478676890704,12.46518502682085,6.753295124408243,-0.5846676016627788
2024-06-18 04:39:03.79,-0.1182276547015223,0.2110359253378479,0.9722913603399976,1.5568722082827824,-0.8510298375077873,-1.7514243622524772,-24.15214669164387,-41.18811218946127,-40.90438357422826,12.578258961521511,6.690621744059015,-0.8079790350014242
2024-06-18 04:39:03.91,-0.1168018357565118,0.2128904338433971,0.9708277029155382,1.8162017556196792,-0.8508985089630521,-1.7301354732006042,-24.01060646795105,-41.121836665806285,-40.80966273090079,12.725734562663364,6.627374673419185,-1.031200406683143
2024-06-18 04:39:04.02,-0.1153425632691914,0.2147641904682291,0.9693145323144828,1.8146021205132472,-0.8501714602471516,-1.833221079369368,-23.874747005906507,-40.97941184213714,-40.91513456973209,12.871685654168576,6.573716823353871,-1.2304742443091503
2024-06-18 04:39:04.13,-0.1141866458279763,0.2165828891636816,0.968264683278258,1.6206490957784916,-0.7772828321928245,-1.9337039345994127,-23.7433375627704,-40.861252053419165,-40.91351359949896,13.0029068746019,6.525408494731876,-1.438243560499998
2024-06-18 04:39:04.24,-0.1133864027316858,0.218317074153328,0.9679896005077376,1.3552712939053229,-0.638407530707858,-2.0095222639056503,-23.60040693403643,-40.88935557503008,-40.68599646988231,13.10251143040261,6.490741343688863,-1.653340730514541
2024-06-18 04:39:04.36,-0.1129678583056716,0.2203844940759735,0.9681546719484962,1.0916652030834015,-0.4904031318891346,-2.048668415410904,-23.43613547920615,-40.875911901598265,-40.60974349318155,13.185358333241664,6.469673198460156,-1.9068378935830517
2024-06-18 04:39:04.57,-0.1120256181766691,0.2248482214240902,0.969635974305926,0.9951813626399998,-0.4018877436605372,-1.9806476637651744,-23.12830695424949,-40.834982236314765,-40.46306935364191,13.298443022371924,6.454512512163615,-2.343813120136865
2024-06-18 04:39:04.68,-0.1119937478255511,0.2270722416915751,0.9705105630730664,1.1279469846621943,-0.4264081992568708,-1.8853838020356544,-23.01486336928007,-40.98479336821361,-40.3669132362874,13.371609648664531,6.443872421040549,-2.5583595207767007
2024-06-18 04:39:04.79,-0.1120028635943094,0.2290195610125939,0.9700783692523208,1.2811978557880983,-0.4023183350958586,-1.8260273365292696,-22.86854957547697,-40.89278448395704,-40.48382583769604,13.467585840340432,6.431280325400874,-2.7713231066969466
2024-06-18 04:39:04.90,-0.1120008671202432,0.2308378701264333,0.968914065377443,1.3849763782628066,-0.348714761119289,-1.9532029721398243,-22.71692221920952,-40.79539740845082,-40.45072286108598,13.58300219393102,6.424598589688053,-2.991635717080449
2024-06-18 04:39:05.01,-0.1119948345175422,0.2325597996511643,0.9674666195006216,1.4352895761753095,-0.3099387126278424,-2.133939191893776,-22.5406008980176,-40.84326929756652,-40.251816702685154,13.70678365908846,6.428814796994801,-3.2276521221741143
2024-06-18 04:39:05.13,-0.1120158581008413,0.234256209094669,0.9657550639613044,1.422394180245394,-0.2886109871889142,-2.237209221640518,-22.332513911644828,-40.79207828397904,-40.21489851764124,13.83741634612812,6.44240572063835,-3.4915731043748126
2024-06-18 04:39:05.25,-0.1125895524434663,0.2361600888248925,0.9644412671194308,1.2218931402770747,-0.3043206211245038,-2.3242972061363942,-22.135568322382348,-40.70998123342365,-40.12943231998899,13.955939227610884,6.460925864420538,-3.771901129935241
2024-06-18 04:39:05.46,-0.1130055288797835,0.2392772131845086,0.9643820851528896,0.6193977607085615,-0.3774469386148421,-2.4346261123804216,-21.75472806815379,-40.73203415540581,-40.02802271046246,14.078330171555791,6.488564016598392,-4.299494864208017
2024-06-18 04:39:05.57,-0.1129980239992468,0.2402367936097645,0.965208172710168,0.4252374013018543,-0.4357324657652339,-2.462185567576551,-21.58382965302138,-40.6302329861192,-40.165862051729896,14.099248067455967,6.495534408255233,-4.5659084624173865
2024-06-18 04:39:05.68,-0.1130018553382856,0.2408518970710307,0.9659970073386026,0.3896104782561757,-0.4916403311828622,-2.475907388391256,-21.408537239703616,-40.60524212076312,-40.15401464521415,14.109703801949284,6.49597330453407,-4.835264319598837
2024-06-18 04:39:05.79,-0.1129984490964186,0.241032762121999,0.966847954270886,0.4805348977634909,-0.5250327733705037,-2.4571682777683628,-21.204803055245765,-40.59008052687869,-40.20889969904684,14.12484584648914,6.491782061693565,-5.115894834656917
2024-06-18 04:39:05.90,-0.1130025932386062,0.2409108295660656,0.9676083250585564,0.5550518931576303,-0.5461934538024852,-2.3628077344413128,-21.03268201695599,-40.49381965354896,-40.33914047147906,14.14775465644718,6.484206931960247,-5.391981379786007
2024-06-18 04:39:06.01,-0.1130000755696491,0.240417131395103,0.9673821683463788,0.5004254176741775,-0.5696699538405222,-2.324900130049974,-20.88132494714579,-40.466098316395616,-40.33691804549818,14.167277150769385,6.475112216229345,-5.655872313131837
2024-06-18 04:39:06.13,-0.113021670531516,0.2399987455260328,0.9658486005877536,0.2746972352196788,-0.6078062067347735,-2.510964141537322,-20.68917214068678,-40.45392138395933,-40.30102400297065,14.166864942390148,6.466025854032836,-5.951722272610612
2024-06-18 04:39:06.35,-0.1139668976296058,0.2399918154612196,0.9640329769051668,-0.1615561069142498,-0.6441536314583665,-2.7428740937074223,-20.271062001636214,-40.1689580602328,-40.41084487697739,14.082241877526986,6.454213178720881,-6.5532709678166166
2024-06-18 04:39:06.46,-0.1140097251315378,0.2400260666643933,0.9639796770335056,-0.2306336449761532,-0.6316294353209176,-2.7813637706546035,-20.1113160119888,-40.19188224871604,-40.42211879729485,14.022245140075697,6.453395085326537,-6.852649663885593
2024-06-18 04:39:06.57,-0.113978258327624,0.2398015635830978,0.964175916467864,-0.1778736606398367,-0.5937122520756924,-2.7577148902651425,-19.92224893020088,-40.12506631908028,-40.61760340163983,13.966632218631617,6.456086782536972,-7.156875611448373
2024-06-18 04:39:06.68,-0.1141178830198243,0.2392497047133454,0.964911028042614,-0.0503095530756223,-0.5424809406137521,-2.759907699632813,-19.727837279318692,-40.03505144613303,-40.66231631664397,13.92238048128138,6.463622053369289,-7.475099087433498
2024-06-18 04:39:06.79,-0.1144648573210838,0.2389243136264885,0.9657335223085198,0.1201028854482936,-0.4986785291780777,-2.7611786118325963,-19.5525216082437,-40.00073966131304,-40.59960475136431,13.899271292391203,6.476380117091115,-7.789587533493377
2024-06-18 04:39:06.90,-0.1143551380145252,0.238472834845356,0.9660175893885288,0.2775423753300207,-0.4406298974733065,-2.7224615067045885,-19.386517397175776,-39.969727702447486,-40.64123159465403,13.89530832948966,6.491945964798166,-8.086661964501722
2024-06-18 04:39:07.02,-0.1140110623146034,0.2374988474162599,0.965996338230428,0.3559121344014354,-0.3650494804574858,-2.640852585351548,-19.16338862037525,-39.80187705790338,-40.77290694536639,13.902114026555456,6.511630400795721,-8.408011790295351
2024-06-18 04:39:07.23,-0.1130742760495796,0.2357581978683357,0.965990586918434,0.1269294694416033,-0.3611528533506541,-2.6503977744384994,-18.81933652837446,-39.71810109753136,-40.68592781486872,13.88832000025241,6.545048218307031,-8.994313965986214
2024-06-18 04:39:07.34,-0.1129903810162924,0.2346412276225568,0.9662238570438976,-0.1218565507534648,-0.4242088897970288,-2.6776846795464064,-18.593322380265427,-39.64708979413173,-40.85831133658466,13.84312820207175,6.5526453642276525,-9.292750583814996
2024-06-18 04:39:07.45,-0.1129972803439825,0.2331468591444937,0.9669216847629404,-0.2821181953961558,-0.491743149974476,-2.6847973284595312,-18.331125013069894,-39.437987895810814,-41.13077409656636,13.768808429889177,6.55204835213373,-9.58991637204292
2024-06-18 04:39:07.57,-0.1131027136881786,0.2314360672460323,0.9677325849275744,-0.3000761425900244,-0.5288823209678614,-2.720755610346956,-18.141407601132677,-39.41234684722198,-41.24549184023475,13.66970784072461,6.54650481675946,-9.931754612815167
2024-06-18 04:39:07.68,-0.1137315051049675,0.2302382341792125,0.96801457093415,-0.2306094170982821,-0.5152527115615454,-2.7211958503512594,-17.973739855467528,-39.35827143866618,-41.31402492596792,13.584734141310864,6.543028259732341,-10.242115151272053
2024-06-18 04:39:07.79,-0.1146748844283848,0.2293313352913831,0.9679937988675666,-0.1429917460665954,-0.4920897956919482,-2.6344399872568443,-17.73521462988311,-39.18767865738183,-41.51613865587837,13.511891229810542,6.544716707588663,-10.54825250179118
2024-06-18 04:39:07.91,-0.1156058908964984,0.2284344090133953,0.9680208384217808,-0.0722826906592251,-0.4909794425685009,-2.5897509573377047,-17.53689588075075,-39.28394543099537,-41.64955553582194,13.447433394234531,6.550927449559197,-10.86275917692824
2024-06-18 04:39:08.12,-0.1160210402299936,0.2247765139086219,0.967120130562257,-0.1820531211171658,-0.5933992026174998,-2.619121017596993,-17.24216923740758,-38.8765302919307,-41.586492591363765,13.326426073926845,6.5591819490262,-11.424709488136578
2024-06-18 04:39:08.23,-0.1157640686822699,0.2230360905368589,0.96694554119942,-0.4174754355231128,-0.6500823818562054,-2.599107983892364,-17.07368277773537,-38.63746033850345,-41.68748473374058,13.234877941585268,6.554982017653384,-11.726050771294538
2024-06-18 04:39:08.34,-0.1151926102502397,0.2219038571546634,0.9672929202101098,-0.6940380218460845,-0.6715736846344745,-2.6934939279435075,-16.804541865291007,-38.54159108210674,-41.8593202580677,13.120008651851618,6.546185920162256,-12.019879162671325
2024-06-18 04:39:08.45,-0.1149691145379288,0.2202468613895978,0.9685083241051168,-0.9244078292160368,-0.6679074025158968,-2.8635934391557227,-16.79062855286762,-38.8422807775871,-42.05306129619043,12.980676479676545,6.537517175232178,-12.32438995583419
2024-06-18 04:39:08.56,-0.1150079901680917,0.2178608886310963,0.969781229751535,-1.1359971227802674,-0.6334152436175136,-2.934336767778101,-16.727607012655664,-39.08287493225038,-42.38636518196181,12.811249020729898,6.531356482560742,-12.657437300598056
2024-06-18 04:39:08.67,-0.1150008748146206,0.2149599405465184,0.9709994548781437,-1.3010808667789815,-0.5450074869270438,-2.706320276054609,-16.39436664141213,-39.48845940636692,-42.42040321073147,12.621582622767017,6.529165712261282,-12.981071875408828
2024-06-18 04:39:08.79,-0.1149979812303162,0.2116498979043661,0.9729345649818302,-1.3715276192369057,-0.4314416661503026,-2.427102517458288,-15.912614498885508,-39.89232706267161,-42.45927327833805,12.411239530035829,6.53231769399661,-13.297928503745707
2024-06-18 04:39:09.01,-0.114540777799348,0.2061465231284293,0.9744996026113102,-1.427827217373579,-0.2260220787986543,-2.288569234301227,-15.558288248459572,-39.68742308692362,-42.93287198787913,12.029857531337786,6.551245386186989,-13.83152056740774
2024-06-18 04:39:09.12,-0.1148363757594035,0.2021879855591764,0.9739040623545476,-1.4819382378087913,-0.0823504400819226,-2.2270142394195824,-15.424006083315742,-39.60854712934933,-43.04117397633847,11.832553728283484,6.572866632646204,-14.093871722525783
2024-06-18 04:39:09.23,-0.1152071621189692,0.1983312392965253,0.9730174956484208,-1.5375161708738383,0.0743080051553344,-2.1225940957116105,-15.344940089176996,-39.25123245591999,-43.1189242438213,11.634410659074817,6.613788827704028,-14.3440204796354
2024-06-18 04:39:09.34,-0.1157137348063104,0.1948166456211241,0.97228889489182,-1.5640244820851792,0.2572528459941702,-2.1003004508105785,-15.378992224603737,-38.64883987096601,-43.25136143116704,11.43290318613912,6.672206469183274,-14.59190964216487
2024-06-18 04:39:09.45,-0.116603579925036,0.1916940316420628,0.972044178968483,-1.5244161758299046,0.4710037761296963,-2.1363872935083954,-15.379766403749136,-38.266094799630025,-43.37771277356379,11.237635145499056,6.751646740478306,-14.829626278596203
2024-06-18 04:39:09.56,-0.1178810448697661,0.187974589704803,0.9725111888185324,-1.4323568780504932,0.6916736533826774,-2.1023496084716062,-15.239923361016308,-38.13780772942543,-43.532458460983854,11.022801728475752,6.856621629847403,-15.094395378517664
2024-06-18 04:39:09.68,-0.1193262215501603,0.1840252596520797,0.9740399423501976,-1.2832629533863655,0.8187706796177125,-1.9569552007049744,-14.996225130727842,-38.16040972039722,-43.62417711258726,10.826491785752957,6.9742088162933165,-15.34623968643676
2024-06-18 04:39:09.89,-0.1220128531433548,0.1776292821252658,0.9770328236928848,-0.8856594434551345,0.7933177139505745,-2.0539077754756883,-14.71847967410983,-37.71633808772409,-43.76898799333263,10.516143428214868,7.183368237145598,-15.79466620477474
2024-06-18 04:39:09.99,-0.1231474916460656,0.1750298620620453,0.9780290418821536,-0.615093398895232,0.6886575943876706,-2.1918019685211245,-14.576192193265468,-37.56921424146788,-43.77325781020909,10.400632296585616,7.267235042201042,-16.0095838688456
2024-06-18 04:39:10.09,-0.124475636426958,0.1727842201286739,0.9786900301537742,-0.2457450141682654,0.5455033459059108,-2.279091882915365,-14.353682664411345,-37.09926303759203,-43.9605443435539,10.30091645319025,7.348633357118209,-16.26305583602866
2024-06-18 04:39:10.20,-0.1262206593741533,0.1713172367777703,0.978461905096817,0.2095946460458451,0.3597595834164924,-2.5107926420138145,-13.970172652863557,-36.43427227441087,-44.33555115669856,10.240093578318302,7.421873980766788,-16.56227108037689
2024-06-18 04:39:10.32,-0.1279971704165649,0.1709906093045487,0.9775580037651876,0.6844460280113736,0.1593428021733979,-2.7263231270763333,-13.745468704225384,-36.32540248544194,-44.28477086515274,10.231149116788997,7.4809206994916435,-16.875192652584186
2024-06-18 04:39:10.52,-0.1316589508729573,0.170883860738988,0.9767118507221996,1.380574392988467,-0.1119552287289222,-2.8019611428948608,-13.559322832303586,-36.44521823832137,-44.1045693691461,10.31051849033154,7.554045221416484,-17.39396949273916
2024-06-18 04:39:10.63,-0.1343019255520811,0.1714698237149695,0.976094694051462,1.9033735811702557,-0.3867808181923218,-2.8825019272329047,-13.143640986182747,-36.21235858507051,-43.83942835064264,10.467648141599517,7.593642726412356,-17.89068801766922
2024-06-18 04:39:10.74,-0.1347603123644697,0.1724078088027566,0.9761549321343956,2.0926465757669024,-0.5025169816142673,-2.9037789758392463,-13.014271321002251,-36.209786045930414,-43.75904924314656,10.546910502505837,7.600809004829479,-18.08392926559453
2024-06-18 04:39:10.85,-0.1349957382609668,0.174473498758399,0.9765485140539704,2.361949747206858,-0.681844170821786,-2.8988732422240826,-12.864978647698477,-36.30424497469758,-43.69055277763334,10.67718499292215,7.602955841855412,-18.36659374620844
2024-06-18 04:39:10.96,-0.13433173321919,0.1789954416275678,0.9770594027269478,2.7238687252390417,-1.0008699421969265,-2.8399395807925294,-12.739654862879483,-36.61388932097293,-43.57443903251016,10.926439314126917,7.57069104918405,-18.813292967594283
2024-06-18 04:39:11.08,-0.1335873670836597,0.1822457426243478,0.9766066280985268,2.915037050526171,-1.2131065204552665,-2.9815517852350304,-12.58670293743626,-36.61218299082309,-43.40080003679312,11.116722536336123,7.525010095843031,-19.116352129789583
2024-06-18 04:39:11.29,-0.1303225441164779,0.1917580453727142,0.9747216940680654,2.998241334176541,-1.6138382932250486,-3.3083889420844925,-12.316032100274109,-36.71241475558093,-42.99718356419133,11.619058856425404,7.351428281954366,-19.886713867168613
2024-06-18 04:39:11.39,-0.1290305929192806,0.1948870978527218,0.9739315257764598,2.895507140245306,-1.7096699998700775,-3.3126619552342658,-12.06822290985059,-36.52578563992819,-42.96889239746625,11.793913842617812,7.273896856128053,-20.166881621197536
2024-06-18 04:39:11.50,-0.1272766663226098,0.1992766885007048,0.9723225968312424,2.6503363054025297,-1.8014216844016022,-3.3373230191188883,-11.897002964427314,-36.70152411542608,-42.76303514702829,12.002776198337672,7.167145374848229,-20.526576352867234
2024-06-18 04:39:11.61,-0.1256107125252062,0.2043967485874629,0.9712742686559628,2.369811590935192,-1.8384785091205356,-3.3859673532227794,-11.766992677949268,-36.74685009919196,-42.86988456380987,12.194135526085432,7.051497776439309,-20.89786562094181
2024-06-18 04:39:11.72,-0.123452281728214,0.207975266215205,0.9705119459332414,2.153158428453772,-1.8764815354871316,-3.4927603389459225,-11.671824758879383,-36.80919327389843,-42.23526585914711,12.371996112491408,6.932468427379156,-21.289126011484395
2024-06-18 04:39:11.84,-0.1209425660961876,0.2125178724164733,0.969443703028352,1.979601953303325,-1.8934383197130404,-3.639272916150433,-11.669568075181342,-37.13280174738333,-42.10042866797417,12.55116096782563,6.804726596464303,-21.729171351691107
2024-06-18 04:39:12.05,-0.117427196432424,0.2194536967788092,0.968998667017197,1.6412685243096397,-1.832290822012947,-3.909165337117981,-11.329538897001909,-36.9460488958151,-41.78781966816936,12.816142180694031,6.602721361072692,-22.509767672846376
2024-06-18 04:39:12.15,-0.1151182932599325,0.221877056458588,0.9690080254902864,1.4601387062749596,-1.7632145833365138,-4.050359100280576,-11.17934721382383,-37.01944009274704,-41.87576507543731,12.927086206796016,6.513434841273682,-22.91918813306574
2024-06-18 04:39:12.26,-0.1133402121706273,0.2236960191799266,0.96896236292726,1.2369276612766416,-1.6742061048464405,-4.224389775418287,-10.875474140958811,-36.83362858065551,-41.63301318969482,13.027819885705798,6.427399045313981,-23.38736743493312
2024-06-18 04:39:12.37,-0.1123942376464553,0.2252334103911459,0.9683834690098422,0.9938777467777962,-1.5689267029885965,-4.3839968096094015,-10.692505367680324,-36.80840716833539,-41.7275828047861,13.098826759214706,6.360086864085082,-23.842797132089984
2024-06-18 04:39:12.48,-0.1109702526580534,0.2264832029531875,0.9680200199052896,0.7331943447082333,-1.456890770600694,-4.541121662831942,-10.320138943589678,-36.31044342145875,-41.94552272756412,13.144395553746143,6.304739543021281,-24.33328086983499
2024-06-18 04:39:12.60,-0.1094682390966559,0.2270277017299798,0.9680128838806236,0.4596469547889748,-1.3223042188742165,-4.679934826632952,-10.188674047113569,-36.63677178186618,-41.71617433377868,13.164050782360006,6.259818779357798,-24.90260985190602
2024-06-18 04:39:12.81,-0.108758676299786,0.226105576192004,0.9682127213021648,0.1141429263962218,-1.1120474914858822,-4.842511815088562,-9.639439310147102,-36.27962856674448,-41.69853280263576,13.129145541247706,6.223634248195924,-25.94256507546403
2024-06-18 04:39:12.92,-0.1081846986878634,0.2258736876775674,0.9689310053492828,0.0014296314212014,-0.9902853591739714,-4.893327343197964,-9.541489103472497,-36.47967085546788,-41.57048885596886,13.0865310947557,6.22140465078987,-26.46699795826101
2024-06-18 04:39:13.02,-0.1079742442934746,0.2252768004826701,0.9697622168931244,-0.0576844947161212,-0.8723415355085229,-4.979228758428439,-9.13326055495276,-36.16140201565832,-41.7901005352348,13.0345108508991,6.231381237816201,-26.96308956203545
2024-06-18 04:39:13.13,-0.1080488633303336,0.2242867226821126,0.9706206938303528,-0.0849487723703794,-0.7664373836163347,-5.039410969467669,-8.724243147139136,-35.854138830642896,-41.94593322454147,12.968394885483711,6.253253032032326,-27.53847019603063
2024-06-18 04:39:13.24,-0.1085621308435916,0.222850281870087,0.971018249765028,-0.0665255918147849,-0.6826028058722907,-5.139315370833017,-8.459794026764518,-35.70663343365054,-42.166159049315766,12.901099957593912,6.283361058943516,-28.12532751960966
2024-06-18 04:39:13.36,-0.1089743846775692,0.2215095402979334,0.97157821468706,-0.0216762363413585,-0.6239368316703332,-5.289742846476987,-8.113247963677347,-35.5187047192972,-42.14574516846158,12.834028524731758,6.321552150444341,-28.741888257570714
2024-06-18 04:39:13.57,-0.1100674681027877,0.2188622309429503,0.9711876293819788,0.0252658108292868,-0.5614938021734801,-5.32787635316121,-7.529317784109753,-35.19707934191801,-42.21408397474092,12.71765339558449,6.402354585873721,-29.87376203984901
2024-06-18 04:39:13.68,-0.1110042379204612,0.2169737279981533,0.970779123218456,0.0837603401289611,-0.5494565143968151,-5.392267806570288,-7.173976042068173,-34.99683334375123,-42.0813148093018,12.660064370455348,6.448725306321857,-30.48383014403861
2024-06-18 04:39:13.78,-0.1118021354939751,0.2154728803455788,0.9703111394651696,0.1183212454457587,-0.56359352766192,-5.382781933237592,-6.991703782166805,-35.17504803278378,-42.14481731359851,12.61172918343092,6.490116707133748,-31.018794400714707
2024-06-18 04:39:13.89,-0.1126332040463671,0.2143219634792867,0.9699645449513088,0.1259298980273498,-0.6021935393411441,-5.382343389339096,-6.593472550713541,-34.88177893415423,-42.42178275960534,12.559982855331112,6.533607387861645,-31.59908502102653
2024-06-18 04:39:14.00,-0.1134408414644793,0.2131573818384867,0.9700117850198764,0.1506993041994039,-0.6642800130473763,-5.429020376615416,-6.26961726622646,-34.63891453939781,-42.35417379417869,12.505672113583133,6.576487749640286,-32.214459839349615
2024-06-18 04:39:14.12,-0.1144137189952199,0.2116103431721656,0.970002351598923,0.1158085059584207,-0.4836106322688137,-5.391336012951602,-5.895627538609218,-34.41610514470017,-42.61439974723323,12.453377911202592,6.613256631044169,-32.88233309810518
2024-06-18 04:39:14.33,-0.1160923129091219,0.2101306494986102,0.9710792418420732,0.0740984836447388,-0.1379562580005096,-4.826521780847928,-5.400128261036979,-34.08967024303723,-42.24252917899147,12.420939747263446,6.61285984942419,-33.968901519116066
2024-06-18 04:39:14.44,-0.1168349788391364,0.2098101450415788,0.9718390753246255,0.2276019511605088,-0.25175218994111,-4.565861212287998,-5.092317302417452,-33.864746773461825,-42.4216723570487,12.421479004850909,6.592625285495726,-34.55676762381033
2024-06-18 04:39:14.55,-0.1170988694903469,0.2092440614262035,0.9720986344218132,0.382466939365327,-0.2813131467940942,-4.8352219407818815,-4.867435590839166,-33.83293711927846,-42.169580980977976,12.433405666089026,6.571619526339644,-35.142325682502765
2024-06-18 04:39:14.66,-0.1175714451073593,0.2089329589506855,0.972572986565476,0.510494919602955,-0.3080407848007281,-4.503639817295318,-4.744935608080795,-33.96660802252839,-42.32359565846685,12.454736250274651,6.552432739126346,-35.7087626220334
2024-06-18 04:39:14.76,-0.1180326475798024,0.2086331873428374,0.9730369743437064,0.5925715159819409,-0.3048948841646279,-4.953821765907498,-4.357478683395511,-33.40727292544923,-42.28372826453176,12.47782766536204,6.539284586717583,-36.20292444866792
2024-06-18 04:39:14.88,-0.1175960380172459,0.2079818181306171,0.9729785642267912,0.6772485853271873,-0.3256558798684005,-4.294071650003676,-4.146270088570913,-33.40607529741545,-42.17038104904762,12.51165523985334,6.5243655647776215,-36.8410504696279
2024-06-18 04:39:15.09,-0.1169990543187581,0.2081910662653132,0.9718407549495248,0.7445968029726566,-0.3631257910985168,-4.560212443728116,-3.5154231798281472,-32.97987477871172,-42.34272336083403,12.577187851005082,6.493263671788898,-37.95149205786347
2024-06-18 04:39:15.20,-0.1169522004559,0.2088959234126172,0.9710935707702456,0.7836213652059781,-0.3665080082100608,-5.385566325095723,-3.386987453394718,-33.138291600988545,-42.40749654613937,12.612392305120794,6.476419481025818,-38.50618231384131
2024-06-18 04:39:15.31,-0.1163068156344086,0.2090571138159145,0.970980893860124,0.797976997950942,-0.3584172287083921,-4.9683447922286135,-2.937714791968161,-32.653383187550645,-42.457730269804046,12.650519669758308,6.459586091036276,-39.08513182969386
2024-06-18 04:39:15.41,-0.1159799345555223,0.2095272616377985,0.9710086063249944,0.8031091573771127,-0.3499898118973214,-4.434316901251605,-2.7861858342427483,-32.66466060882224,-42.13598388479145,12.6894441337888,6.443381562303503,-39.626543662531446
2024-06-18 04:39:15.52,-0.115538020023668,0.2105149875477605,0.9709945788011082,0.1628906584927727,-0.0710601743044792,-5.341416826423783,-2.6994539703446976,-32.73029489831265,-42.634475517404326,12.692989495577184,6.443794770432457,-40.22254083812968
2024-06-18 04:39:15.64,-0.1149409295768792,0.2114459163480732,0.9710049114756594,-0.0334225462892383,0.0146660397057611,-5.229088521628729,-2.5035841749753165,-32.81171312531272,-42.24683103091301,12.648334733396933,6.465858096344202,-40.84134947256332
2024-06-18 04:39:15.85,-0.1149962050133701,0.2131178390825611,0.9710521134587344,-0.0047245143577668,0.0020714711526099,-5.266732964271874,-1.713230137055023,-31.88645168319327,-42.42794976679951,12.596691302745423,6.493071698845992,-41.94633831502472
2024-06-18 04:39:15.96,-0.1149919195972557,0.2147925697642822,0.9718921475447252,0.0015177541234237,-0.000665418800912,-5.303207324781701,-1.5994677074571333,-32.05033187669496,-42.00420063260115,12.581721460863625,6.503073883473588,-42.54202200183828
2024-06-18 04:39:16.07,-0.1150284228949163,0.2158950469495046,0.9720489480924546,-0.0004334868664461,0.0001900281266788,-5.399298526233719,-1.369363791771683,-31.913292048580143,-42.21752370664256,12.574247607012516,6.511070073049599,-43.14655801574656
2024-06-18 04:39:16.17,-0.1143829329609137,0.2159485291102118,0.971379524942222,5.2633359828532593e-05,-2.3057228987535334e-05,-5.402800003145028,-0.9813653561976844,-31.31902570502556,-42.12039675909551,12.5722274319275,6.51596984012787,-43.65211624127856
2024-06-18 04:39:16.28,-0.1139864489086292,0.2165477689188385,0.9709726294480034,-1.1743929207985702e-05,5.143472516071282e-06,-4.05108418847918,-0.9229082824995258,-31.47000955626657,-42.30190737028905,12.573413500339864,6.519895776460259,-44.2637972612126
2024-06-18 04:39:16.40,-0.1140104000718045,0.2170020613009637,0.9710645165665772,4.292799233766417e-06,-1.879257111927262e-06,-4.164851125165955,-0.4887086340569864,-31.080097390551867,-42.48703220598996,12.57791191583933,6.522806879809876,-44.94660156648428
2024-06-18 04:39:16.61,-0.1139825935469133,0.2179115910024633,0.9700884010195292,-6.042010391055438e-07,2.650803972132593e-07,-5.458250526170003,-0.1114033078775663,-30.88930131189321,-42.2609419924357,12.590597655763707,6.527114523415087,-46.11647875339023
2024-06-18 04:39:16.72,-0.1140733204283268,0.2180047404494,0.9700022288812208,1.481445626165091e-07,-6.499106691738814e-08,-4.976299389033344,0.273729777344896,-30.44121435710243,-42.18733501239471,12.598082817924777,6.530316478088276,-46.75766928929544
2024-06-18 04:39:16.83,-0.1147693194514518,0.2173178546973692,0.9700006255542508,-5.2986508047165374e-08,2.3239241353361252e-08,-5.437836932805968,0.3818835385942159,-30.723929055281925,-42.36373087149838,12.60530912490219,6.534119769613037,-47.41038658712054
2024-06-18 04:39:16.94,-0.114260526793265,0.2169847484976562,0.9700009034706076,1.6552365803374304e-08,-7.259029996449352e-09,-5.821399187658487,0.7765379099044933,-30.0782249365409,-42.44436502902133,12.610410862440714,6.538267375293502,-48.06514853525002
2024-06-18 04:39:17.04,-0.1141349061221525,0.2170510094630673,0.969996259284462,-2.015935312970778e-09,8.824155279159817e-10,-5.756850405353265,0.9438740453805726,-29.862942712217155,-42.11770639828132,12.613004040617042,6.541429391462947,-48.61447263998318
2024-06-18 04:39:17.16,-0.1140396151196148,0.2165856006072818,0.9700143765658926,1.1549613485568636e-09,-5.062187148839686e-10,-4.633556177673745,1.076027252704595,-29.951067152781206,-42.24769878105095,12.613507118455836,6.545120105457897,-49.3086613431726
2024-06-18 04:39:17.37,-0.1139988601935332,0.2157769925659046,0.970228645420298,-2.0030554634479636e-10,8.78378134529621e-11,-5.082461575878645,1.716493189948969,-29.210467265913568,-42.31239373764493,12.606813315549788,6.550405624978898,-50.570691172467406
2024-06-18 04:39:17.48,-0.113999758919461,0.21513857275069,0.970826405491362,8.181726370778903e-11,-3.5882174787442324e-11,-5.310523248079503,1.934087947507034,-28.941288864934798,-42.61272352634482,12.59976997285426,6.552350484799861,-51.19686731578101
2024-06-18 04:39:17.59,-0.1140021156798733,0.2143244928523803,0.9710046037422936,-2.3697194490033348e-11,1.0388084038969865e-11,-5.333745740054482,2.1826689893500646,-28.812127486810475,-42.38131041755991,12.588870244936162,6.554184783098299,-51.85084016766504
2024-06-18 04:39:17.70,-0.1139941917971633,0.2134097357656416,0.9710039619295178,6.675720184619418e-12,-2.928293331395797e-12,-5.304653141120013,2.4357255373857254,-28.608758488310905,-42.55592320713697,12.574155496060357,6.555823029965203,-52.52888828285964
2024-06-18 04:39:17.80,-0.1144602610675469,0.21304936538181,0.9709864003738604,-2.6791142749542328e-12,1.1816065862710793e-12,-5.176009749059123,2.833345424854197,-28.027721807150947,-42.7787786781105,12.558273210042003,6.557505260353363,-53.14758982288285
2024-06-18 04:39:17.92,-0.1149657499577611,0.2125462190335763,0.9714413294016132,5.926588000976232e-13,-2.9907525725686284e-13,-5.32912603094965,3.0185401806440395,-27.944423555668088,-42.66770655409727,12.537895762955936,6.560309536363448,-53.867228968224325
2024-06-18 04:39:18.13,-0.1149951367504909,0.2118246059393344,0.9720176513054029,-4.3386425381007863e-13,-1.1134271306760845e-13,-6.135356804448705,3.494270185308279,-27.416403212809605,-42.86448094129511,12.498332163774334,6.566655176690039,-55.1415377205653
2024-06-18 04:39:18.24,-0.1150017152762807,0.2113039709994374,0.9719943023298838,8.870175820297839e-13,5.263188881027512e-13,-6.098122593861783,3.738924662344005,-27.0722546445752,-42.678140685617095,12.477080380431268,6.57073768864181,-55.83136828928831
2024-06-18 04:39:18.35,-0.1149994866804698,0.2108999202096789,0.9720020685286146,-1.8831592977413383e-12,-1.752435530483021e-12,-5.6192622542605575,4.069649046880975,-26.62915558352825,-42.592168062377525,12.455766668679631,6.5748531305974485,-56.52222265158502
2024-06-18 04:39:18.46,-0.1149982197967868,0.210418782105952,0.97199874460186,-2.1308409858671943e-12,4.8788819160458395e-12,-5.158418385961312,4.3024422703189575,-26.477403001527374,-42.62868265150422,12.435420707182477,6.5781440853179225,-57.17916313703881
2024-06-18 04:39:18.56,-0.1150040423996192,0.2100173449388395,0.972001598120628,7.541379181692574e-12,-8.94227130939865e-12,-5.4103751201352805,4.410280302435652,-26.469771073128747,-42.84654790268393,12.417934560078686,6.580776924390268,-57.77731068142064
2024-06-18 04:39:18.68,-0.1149807085206724,0.2104401116613038,0.9719930857543332,-5.1189102876340065e-11,3.950093031433962e-11,-6.053782285160461,4.711971821074094,-26.065269494427568,-42.78981053289257,12.398278983710023,6.584364850351784,-58.5430120029512
2024-06-18 04:39:18.89,-0.1158174339776854,0.2109980907949852,0.9718550744330609,-6.427612241057671e-10,-2.1906599449498204e-11,-6.281112000183859,5.108521066524402,-25.685109174074096,-43.06125060163967,12.372474172490437,6.592385927650992,-59.88131139317368
2024-06-18 04:39:19.00,-0.1160254830574706,0.2111043652526767,0.9712948602639336,1.835178598021685e-09,3.3859250709356586e-11,-5.800575691060704,5.4602459934552,-25.1877468018592,-42.93853420857494,12.36352187657745,6.5978820437912935,-60.5648136557213
2024-06-18 04:39:19.11,-0.1160662288283125,0.2116440430660701,0.9709615490163516,-4.908275525463635e-09,-4.1630477781165274e-10,-5.966721575363932,5.611552454018899,-25.144969924795745,-42.84178896416072,12.35744545716489,6.60502354430886,-61.293063624123846
2024-06-18 04:39:19.22,-0.1166116519164609,0.2120580144059234,0.9710113842612206,1.4697551946599304e-08,2.8957775008483702e-09,-6.275379930905613,5.922130778083083,-24.7561135593539,-43.08522931088954,12.35502160503226,6.614129832014456,-62.02469668795397
2024-06-18 04:39:19.33,-0.1174197861974364,0.2123774079870041,0.970996359542762,-1.8182626845253412e-08,-1.8907554048253488e-08,-5.665801276246535,6.101111673284686,-24.498105333519398,-42.95226239561909,12.355843223136814,6.6248270400573945,-62.73921621106985
2024-06-18 04:39:19.44,-0.1179477656106567,0.2129560074805433,0.9710007255173636,6.082228405290722e-08,4.3058285099856233e-08,-6.416099615270648,6.245439792231519,-24.366589282803503,-42.947179798814375,12.359300528660384,6.636106498665838,-63.436517454780535
2024-06-18 04:39:19.65,-0.1179954239749825,0.2138523888948031,0.9710000160860028,-5.318931316000825e-07,-2.8939514914410425e-08,-6.570108176805815,6.8300289297049686,-23.604663884592828,-43.09984496392331,12.37132396665612,6.659005265503297,-64.86057466555613
2024-06-18 04:39:19.76,-0.1179973043376483,0.2139587248533202,0.9710000044467272,3.455959603395653e-06,6.746311253201734e-07,-6.55474690892366,7.050573086935691,-23.1461106500358,-43.17441680620183,12.377863771889794,6.669338457336533,-65.58924230152249
2024-06-18 04:39:19.87,-0.1179845325064586,0.2133131476737532,0.9709999883090256,-3.085203222336752e-06,-2.5824582051274918e-06,-6.533573956470192,7.266026273890611,-22.80559286277484,-42.87941981376157,12.382834716564425,6.677537078079996,-66.27304012676136
2024-06-18 04:39:19.98,-0.117546187488201,0.212956062165911,0.9710000060640028,8.492788625482025e-06,9.236547033924158e-06,-6.123249454119305,7.360995724984292,-22.82825253199632,-42.93767881715895,12.387026144874673,6.684416572470541,-67.00798931226957
2024-06-18 04:39:20.09,-0.1169554692560186,0.2130110350557825,0.970999996511214,1.3837261131187716e-05,-3.645552850534282e-05,-5.502569023328904,7.693371911981766,-22.14013897098851,-43.16611904726364,12.390050575659,6.689539110363038,-67.73578290171365
2024-06-18 04:39:20.20,-0.1170130181601395,0.2130059638199431,0.9710000071971464,-6.079100776611949e-05,0.0001373846885107,-6.388096266062273,7.655178025152522,-22.26726847427881,-42.90694401488992,12.391359569400182,6.6929373561311705,-68.44445984333498
2024-06-18 04:39:20.41,-0.1169858817305845,0.2120554746262465,0.9709994898773984,-0.0274885528761379,0.0054270723562745,-4.790201737950189,8.388985059130734,-21.46598244239109,-43.61229934712083,12.386107518574835,6.6956872688175135,-69.70035664485947
2024-06-18 04:39:20.52,-0.1170330832476603,0.2120170121346543,0.9710019500998592,-0.0880569741438782,0.0438856220936321,-5.511786148951043,8.13029038975645,-21.176554372001466,-43.61717771188184,12.37905718118065,6.690728043057831,-70.34959799191144
2024-06-18 04:39:20.63,-0.1163282466637892,0.2113370140410319,0.9709930410765708,-0.1695019425246532,0.0738751147043528,-5.457734674359853,8.542009931704317,-20.86746295049864,-43.60760009728191,12.363728430322722,6.684971700619943,-70.97888120486809
2024-06-18 04:39:20.74,-0.1159767791352645,0.2109663580335111,0.9710242313235748,-0.298434353233029,0.1213304462703353,-4.211491060705423,8.479610651290562,-20.809661784193917,-43.713506904342616,12.339526934176885,6.677456852973,-71.57879064322847
2024-06-18 04:39:20.85,-0.1157135839550573,0.2107110571339989,0.9709354924689574,-0.4652394297280885,0.1745158064301432,-4.257262022536997,8.81669409023064,-19.941732604153213,-44.227379649766185,12.305621007379443,6.670604610081048,-72.1112587317001
2024-06-18 04:39:20.96,-0.1150449606668968,0.209324641635324,0.971349121397474,-0.7018133972070368,0.2176084167144658,-5.045509014994826,9.241528703740665,-20.19410068580304,-43.81674745265351,12.24492784047515,6.6707205857932665,-72.71744043611872
2024-06-18 04:39:21.17,-0.1149559713012381,0.2061702668694773,0.971166686567282,-1.3185177009479323,0.1731786857952724,-5.060090044705839,10.136607164036333,-18.98040269946162,-43.66436749127013,12.035661335875597,6.672365674494191,-73.86402250074444
2024-06-18 04:39:21.28,-0.1142221081069095,0.204537626271109,0.9717487254142168,-1.671184642489225,0.149345289605358,-4.506698301146021,9.984792905892183,-18.585370992260003,-44.195654422003,11.89303616036466,6.654750489685879,-74.3645177257975
2024-06-18 04:39:21.39,-0.1134153658949681,0.2014543258310202,0.9726430507753878,-2.0375837837831865,0.1754128379359893,-2.620163019593283,10.038373281979483,-18.61197639397296,-44.17560463138931,11.710567882287112,6.618306990776457,-74.82218068142909
2024-06-18 04:39:21.50,-0.1111453593828118,0.1982732803779393,0.9740440976347112,-2.429210478614017,0.0779646193162463,-1.8703911172684196,10.28029070650364,-19.250397196894337,-43.49458906653041,11.50090535669529,6.546185809906686,-75.14909765059393
2024-06-18 04:39:21.61,-0.1096018823253831,0.195005473939376,0.9754747564547638,-2.8280938557966326,-0.0484431113942822,0.2677469821886109,10.268761260805087,-18.68010912909373,-43.69033006434052,11.274256816420127,6.410159433631102,-75.24526388483318
2024-06-18 04:39:21.72,-0.1081812295657561,0.1921394411998746,0.9762045548868072,-3.099331458655353,-0.2034699168287106,3.658748766857338,9.747681595991228,-18.312366125278004,-43.42461396191489,11.05914873656439,6.228449655332474,-75.0832512628409
2024-06-18 04:39:21.93,-0.0990918409695129,0.1852133284697248,0.9779069976802708,-4.049717721842536,-0.3393018808517842,16.259788739766996,8.125155419179784,-18.53184853241857,-41.65856311555131,10.648538926470575,5.569728842802293,-73.22336752114252
2024-06-18 04:39:22.04,-0.0906895564733495,0.180939269084405,0.9788826903323116,-5.373725418142942,-0.1884185675538816,30.08078951569368,6.100329557220125,-18.801287717957663,-37.01687623622023,10.420430265359707,4.963550004927299,-70.69267692895717
2024-06-18 04:39:22.15,-0.0812603659236748,0.1771136368303399,0.980420890342135,-7.207070321224594,0.5861412757274196,46.05358958136376,3.017970135859024,-20.12849073429954,-34.557427071124714,10.127190274223672,4.2034617316771525,-66.77495152121736
2024-06-18 04:39:22.26,-0.0689941983642132,0.1728129130444853,0.982027043461328,-9.07169707252003,1.6832144784950431,58.29076006835199,0.4600336357871772,-22.57857553828137,-35.204221079674966,9.653509836997246,3.3084852981099,-61.066041695116176
2024-06-18 04:39:22.37,-0.0554200044797677,0.1644867229542485,0.9852226994341066,-9.6840023351631,2.074510723269382,62.475080985863336,-1.5025489386613258,-25.75498440547911,-40.80252270613884,8.992963273991668,2.392790111902734,-54.21184977573079
2024-06-18 04:39:22.48,-0.0398076035361039,0.1500059281387687,0.9906143477968344,-8.546399660592094,1.97700891419398,54.59924734097059,-3.604446757697569,-28.07109649585599,-46.39567938265091,8.260607998879657,1.5969806061908036,-47.536526151705296
2024-06-18 04:39:22.69,-0.0135147869808098,0.1200364133927536,0.995696153550668,-5.512642835432054,3.3847877861307936,33.00928109499739,-7.336789606524161,-29.833291784774055,-48.38244484780522,7.066784980818591,0.8451616889980413,-38.73973299336591
2024-06-18 04:39:22.80,-0.0028951021656774,0.107997062262101,0.9952703006652432,-4.406702676347539,4.546798610140071,26.012184723004115,-8.917065383125733,-30.480172182073176,-48.71948771195102,6.541408486076477,0.7838145575449171,-35.45329796972171
2024-06-18 04:39:22.91,0.0035003416027633,0.0990303701559018,0.9949864170798488,-3.689312279199114,5.665879419796445,21.441976069922312,-10.251908447441872,-30.862300618634663,-48.7770299792192,6.088420401820799,0.8924633036709998,-32.80200468697166
2024-06-18 04:39:23.02,0.0054314281981126,0.090918171255992,0.9949909841238064,-3.0561433951959645,6.669428482110494,18.347351272032785,-11.128732733051637,-30.97169960101169,-48.924404476959126,5.7147602528265145,1.1278103480443296,-30.671597573940968
2024-06-18 04:39:23.13,0.0032506275452467,0.0841305715732396,0.9953996569639654,-2.362341152919324,7.564437742185953,15.84620102170138,-11.747743553214796,-30.902394331329827,-49.036135371249614,5.4089570280856565,1.4907204788176411,-28.836581647801697
2024-06-18 04:39:23.24,-0.0031916527777335,0.0787547002227456,0.995918750600169,-1.6222680151286333,8.356148455702902,13.527084866526918,-12.235930266209698,-30.87885219621541,-49.14027450760776,5.171555370885369,1.9799328622551915,-27.18350530059222
2024-06-18 04:39:23.45,-0.0220494303800038,0.0732047551290483,0.9959988975878444,-0.3895146037116089,9.38584775336911,10.873804868179388,-12.789364620590243,-30.97554369486169,-49.17410943221168,4.95177371661633,3.143273686629084,-24.69519564983969
2024-06-18 04:39:23.56,-0.0330613998041402,0.0724278321549743,0.995948706602805,0.1016562036892468,9.65792396778398,9.53857246935732,-12.943080112138482,-31.142853365427666,-49.05909153033382,4.945940901211527,3.820228787648999,-23.69024969555325
2024-06-18 04:39:23.67,-0.0478764246796417,0.0726222335516205,0.9954328996290231,0.5225544827241403,9.742240468096885,8.251500712233092,-12.977834881072669,-31.29008534262336,-48.87971365388707,5.003588213633794,4.570055177786428,-22.764386094561893
2024-06-18 04:39:23.78,-0.0634871675256588,0.0745097953929299,0.9944979088052904,0.8664100093902327,9.633252531417126,7.249481891280659,-12.941519290905877,-31.314554141577982,-48.67749091382596,5.118167175416934,5.333771813125487,-21.955277218742093
2024-06-18 04:39:23.89,-0.0789136785282147,0.0776443122019937,0.9935861751025524,1.0969271234468287,9.383034318143762,7.471381161780893,-12.939818658422745,-31.462031967134603,-48.439609539277626,5.27712047291823,6.084403712687685,-21.24333318920563
2024-06-18 04:39:24.00,-0.0934708343834914,0.0811035801419827,0.9924056808084636,1.192255817791945,9.022027624895571,6.838169073796653,-12.986103675058406,-31.82259454374455,-48.05910192304556,5.462965750878495,6.793026898502914,-20.618897258699093
2024-06-18 04:39:24.21,-0.1179781216873939,0.0888126390244175,0.9893528076342883,1.1045597235467486,7.990215135444929,5.446145578310386,-12.850482477196248,-31.88846779619833,-47.98803136040259,5.869573923007428,8.071769865538343,-19.557106762146983
2024-06-18 04:39:24.32,-0.1315702217227722,0.0938181099060243,0.9874956816651678,0.8923970362922246,7.263769896716652,4.990149350495147,-12.858727540689875,-31.888841600893908,-47.802647587219,6.089090344152493,8.673708769690574,-19.0659551319591
2024-06-18 04:39:24.43,-0.1433662188777721,0.0981879739110191,0.9856983739442484,0.4987720534958897,6.489251481629653,4.359402110251575,-12.805132978749567,-32.24633372178644,-47.45568298217664,6.282039499156581,9.197713830571676,-18.634673706956075
2024-06-18 04:39:24.54,-0.1535166993656028,0.1020042090380876,0.984046137930142,-7.212415381183113e-05,5.683296038854037,3.289929179948832,-12.96132616449488,-32.5498089427905,-46.74321847464808,6.427020154787198,9.628173900280254,-18.26608206813808
2024-06-18 04:39:24.65,-0.1627141678724246,0.1048529835605751,0.9830083169658184,-1.4340916010873337,3.9496275668266794,3.146561665323766,-13.591960589231912,-31.8129007175788,-45.08465107517219,6.497237011148486,9.977249415614072,-17.899596950379333
2024-06-18 04:39:24.76,-0.1695292967542802,0.1062090793101082,0.986528833778616,-4.741324468463192,1.6916615261481227,3.031849678161099,-14.395745929913929,-30.828787512314715,-42.56073642055836,6.31046636014237,10.101993639516373,-17.550733826402308
2024-06-18 04:39:24.97,-0.1759305436057922,0.1028450207202589,1.0192262285755325,-6.596678087413112,1.3045002898088336,3.465783179785,-16.22187107518039,-29.560810530612503,-35.95339995914531,5.399132261072272,10.176534530890091,-16.915582211583523
2024-06-18 04:39:25.08,-0.1731004621214304,0.0931484706691019,1.0200066715078189,-6.962612172458509,-0.6089080459220061,3.5278665749320863,-16.606581723638225,-29.17218800246672,-36.7152070326534,4.880693645175102,10.061006888378326,-16.506045249539554
2024-06-18 04:39:25.19,-0.1699261860260469,0.0814323059004025,1.0064837789019525,-6.788971363993468,-1.174893818904578,3.606214698160143,-17.099706512782497,-28.78722066369057,-37.1383993783204,4.317594804629727,9.808682901963476,-16.136923306846793
2024-06-18 04:39:25.30,-0.1675482904026929,0.0712652811859228,1.0031666173758185,-6.5265374470204165,-0.8558043751863925,3.967916388014452,-17.24340496166073,-28.18572095771729,-38.23977795035552,3.787297747454032,9.609414565046318,-15.859630563028585
2024-06-18 04:39:25.41,-0.1631062081435225,0.0599737281506732,1.0047142164924765,-7.589425677980425,-1.1175479891984064,2.954981353812342,-17.715553803003278,-27.55023354162817,-38.26294980205291,3.2238291622935176,9.435234585935552,-15.623672959402429
2024-06-18 04:39:25.52,-0.1557619984507565,0.0490335071718948,0.998763905558412,-7.504183402387524,-2.22578140211347,1.961891406255498,-18.099369802079863,-27.125886064625583,-38.56142459658759,2.5314741009989388,9.172702555241964,-15.4079590156249
2024-06-18 04:39:25.73,-0.1442493440276434,0.0251822325183608,1.000017213893517,-5.55388001649094,-3.332830353343655,1.4128588631578158,-18.84170865207209,-26.44589539140548,-39.72483013222044,1.4252607109283917,8.396215413459812,-15.047656903625407
2024-06-18 04:39:25.84,-0.1367794372933166,0.0135437699755396,1.0021512729312103,-4.924102285789258,-3.6605308282720608,0.8884148818580333,-19.081639443419757,-26.08637731607556,-40.02701484717038,0.9930929578492548,8.003264368670862,-14.926365585223545
2024-06-18 04:39:25.95,-0.1281482126225072,0.0049650207942063,1.0042104191981465,-4.314366975630139,-4.250748375869331,1.4500656451875122,-19.55799959745905,-26.08184666427252,-40.13901004440484,0.5537336984838941,7.524400077261365,-14.851809180259458
2024-06-18 04:39:26.06,-0.1161045906381124,-0.0038284873652866,1.004454550939137,-3.66111233627239,-4.777902394814215,1.0017041019673596,-20.056886850686663,-25.96059372185688,-40.31691755663043,0.1573780267412359,6.968251496623117,-14.79510090714857
2024-06-18 04:39:26.17,-0.103484396663754,-0.0113846229297736,1.0045486894765123,-3.152605641208732,-5.165866856594952,1.1102100990755324,-20.431631865194515,-25.761807653460696,-40.56894869273568,-0.1892737199703444,6.364284145738859,-14.747760235750585
2024-06-18 04:39:26.28,-0.0908805024276322,-0.0168903671716115,1.0051666805422157,-2.3966606380450184,-5.772453921219327,0.1319108013364484,-20.844281678972315,-25.664199766071068,-40.8468267657545,-0.4609777996719866,5.751576193088674,-14.72226650184743
2024-06-18 04:39:26.49,-0.0659553825813474,-0.0247048329254928,1.0047216442627118,-0.9709837250869384,-5.640663040194651,0.7535279388305564,-21.530643061467966,-25.66847021403434,-42.07535968123441,-0.8304743684022654,4.386509853476155,-14.71956647746404
2024-06-18 04:39:26.60,-0.0513222130337477,-0.027288745648397,1.0050346905984162,0.475239989687004,-5.498328192555423,0.46325925679483,-21.806804042022527,-26.020755970664812,-42.56554200664242,-0.8873999874161038,3.694266027188344,-14.712715484575806
2024-06-18 04:39:26.71,-0.0370277906588491,-0.0281406329352652,1.0031964266710858,1.6959166739556435,-5.396956558457095,0.2232408908373926,-22.068024156843045,-26.346423160242672,-43.009228503709146,-0.8109662519643657,3.0406518181626403,-14.70850857628768
2024-06-18 04:39:26.82,-0.02232681929403,-0.02573286036829,1.0017466935694794,2.525994551752685,-5.1453620801968825,1.6766208716293858,-21.62776619169952,-26.976943693929112,-46.584370905574936,-0.6422240736302672,2.367178024968994,-14.694155183376274
2024-06-18 04:39:26.93,-0.0076049259941707,-0.0214147083061114,0.9924831261429106,4.185001540409301,-4.576209603647611,2.0713778582316538,-20.640977856745064,-28.79351224000332,-51.09366445916172,-0.3600905839188282,1.7046667874315382,-14.671318044911274
2024-06-18 04:39:27.04,0.0052270861867978,-0.0164726728314659,0.9778069694076904,6.170068900555602,-3.23585719711519,0.7025317441470229,-19.468218522591226,-29.425680843179,-51.51794597909818,0.1198399996884221,1.128531335151144,-14.675508213618867
2024-06-18 04:39:27.25,0.0274318901615863,0.00452819124008,0.9767843581778176,7.829750789925133,-0.870387908185342,-0.2105165457702782,-19.65192679526454,-29.478544099280334,-50.60227990558737,1.3481341159268958,0.3614420540308737,-14.777645044799131
2024-06-18 04:39:27.36,0.0345589157619115,0.0200334117036571,0.9836458334026896,8.322126924332737,0.3751061438366103,-0.2935340281182935,-20.151241418243952,-30.156498652773685,-49.68161157636906,2.100223353503096,0.1075150930055411,-14.87009153497898
2024-06-18 04:39:27.47,0.0392659400475511,0.0377778626496944,0.98613710869119,8.35088849736661,0.7889356625968597,-1.0389323416787606,-20.88738424617028,-31.559435511476774,-48.24317451882835,2.9343440609218003,-0.0651873789507263,-14.989051789309622
2024-06-18 04:39:27.58,0.0408674188345447,0.0551766144036372,0.986279070244657,5.99695903344734,0.2854271874894077,-1.2882797864354505,-21.646287063543163,-31.5095181166083,-45.50193546207001,3.6529978796599423,-0.2771018956243394,-15.12446828398492
2024-06-18 04:39:27.69,0.0414398694366871,0.0702895470970533,0.9903666104123606,2.8788662074848874,2.328618760627135,-1.0868409751251336,-22.50124280237725,-30.8381714872092,-41.00052237755942,4.069225421544069,-0.4065489436838562,-15.296815287327544
2024-06-18 04:39:27.80,0.0406954008640025,0.0834605183723332,1.0089577633494728,2.7888881969871857,3.951822027454337,-0.6410560656451957,-22.688283662047308,-30.6964150998387,-38.41861201521982,4.372604629009501,-0.2947259653266884,-15.495235687914452
2024-06-18 04:39:28.01,0.0334560695038967,0.0988623699203509,1.0218937058873798,4.191567673244517,2.7010571365191445,-0.8038727343543284,-22.613437354928656,-31.06675820315621,-35.81333570905305,5.250914824255522,-0.0885329187677434,-15.729091955798912
2024-06-18 04:39:28.12,0.0296704800707417,0.1058835079949691,1.0109916962612469,4.188466190759232,2.7123656609039712,-1.514510353458516,-22.45320679894854,-31.552573507753223,-34.90106768886032,5.722085529736262,-0.0400577473030032,-15.855726681164134
2024-06-18 04:39:28.23,0.0273936824139533,0.1140630450587717,1.0072795272677122,4.296571043764488,2.466112298293744,-1.5308974048617892,-22.160323947779816,-32.10352459306303,-35.32694590002376,6.19733240314612,0.0169217826749097,-16.02901108292932
2024-06-18 04:39:28.34,0.0266421092500638,0.122734455806238,1.0017203604696598,4.41672423748614,1.787763506250904,-1.1293636681706332,-20.74742278136528,-33.09020023885237,-40.640327558442735,6.706091262714688,0.015880423658632,-16.181362628398418
2024-06-18 04:39:28.45,0.0260745425779803,0.1317159066785362,0.9817190172446204,5.317959204211456,1.9881483013864272,-0.6381875490361879,-19.559844207086236,-33.87517275315631,-45.549979220652034,7.275686782620752,-0.0259891568079911,-16.30923540261479
2024-06-18 04:39:28.56,0.0256208352332898,0.1423682480354221,0.9592978568920162,5.846836512761083,2.728518978662048,0.0079996089228762,-19.96798192340943,-33.340900047162386,-44.78997191034069,7.931693822944281,-0.0156196861430906,-16.426556674535938
2024-06-18 04:39:28.77,0.0215012844375288,0.1668846547685819,0.9692164231540048,5.345906693441799,3.847552133723085,-0.1613075466736379,-19.838630183693724,-32.933690950496995,-44.15050019354495,9.200893130674029,0.1728687898653174,-16.606810847384914
2024-06-18 04:39:28.88,0.017555235649202,0.178171484357647,0.9710247922682532,4.904883862359141,4.630739765568644,0.2413840913399026,-19.78113362374824,-33.48648427770357,-43.56748297461963,9.84458392928867,0.3807238239768053,-16.69172750510563
2024-06-18 04:39:28.99,0.0116555436411561,0.1902063917647597,0.9720659376442032,4.305308467121461,5.410924563974498,0.0966350977765994,-19.83104125146963,-33.96678199122324,-43.09771006889536,10.424468794096562,0.6653731850521339,-16.773746383391607
2024-06-18 04:39:29.10,0.0053101854247168,0.200666178386607,0.9717387158004702,3.544133777394645,5.911073624288831,-0.6174572221443265,-19.568564765949432,-34.263286282009126,-41.49314920325541,10.923762738264518,1.0079679763544085,-16.85771978237492
2024-06-18 04:39:29.21,-0.0028111983634905,0.210442946137546,0.9729696756631292,0.4452637243773201,5.433862603103012,-1.0471415533143775,-19.385258837987603,-34.14876177050728,-36.88963246364466,11.28639969836641,1.3834174761572198,-16.96058358228946
2024-06-18 04:39:29.32,-0.013035960441865,0.2181548411637544,0.9851883623510694,-4.849364489702016,4.658089235832779,-1.2660149445492666,-20.2880044191872,-33.72849058162077,-31.24387204790209,11.159558085357856,1.6875834304681896,-17.094652263770136
2024-06-18 04:39:29.53,-0.0264835885865716,0.2159941458619997,1.0115972866757623,-2.295005073936221,4.608495929112943,-0.6699291992707658,-20.34359135567375,-33.95341046385271,-32.12126795437677,10.66616641387825,2.285362753432656,-17.281482169462706
2024-06-18 04:39:29.64,-0.0330360131821641,0.2065518365175203,0.9996521880754918,-2.807926952900423,4.570355026316842,-1.6043600211543438,-19.94056923060853,-33.7447243861307,-31.928105924188326,10.541283992799585,2.585984475518414,-17.415011024112538
2024-06-18 04:39:29.75,-0.0397758553608451,0.2001593061446761,0.992305710222311,-1.9223458458934768,4.328542259061244,-1.2713988494506967,-19.842036074776043,-34.35576142534727,-32.49180876683227,10.409309326259551,2.9102840331339035,-17.594930423394544
2024-06-18 04:39:29.86,-0.0439524770851129,0.1971022260981106,0.9920386023625264,-2.1522800084012785,3.820206899130121,-0.5613228048338242,-19.630117272207023,-33.88313854027052,-32.75670784651172,10.334622214790866,3.165011736658482,-17.694968899677374
2024-06-18 04:39:29.97,-0.0490205763769544,0.1928546432487018,0.9893105701527516,-2.633206508846794,3.5735054123444363,0.8057793253783758,-19.55453568504303,-33.833788163773995,-32.90775939618917,10.198059911455024,3.3808113792494074,-17.72070649455178
2024-06-18 04:39:30.09,-0.0532969779540155,0.1905736635490156,0.9849261906523504,-2.1175327790825813,2.700117242379496,1.4953798478445797,-17.86891676339009,-34.726719819094605,-41.49759317901215,10.058034561082636,3.532231216482641,-17.727243293286143
2024-06-18 04:39:30.29,-0.0564270927993495,0.1841270540195727,0.9498713785160192,0.6929641733203006,3.767643511731773,-0.3147482879764496,-16.000855010327253,-35.63564872815304,-44.44424454479177,10.200476201580871,3.851746069844276,-17.80508351695999
2024-06-18 04:39:30.40,-0.0602245136752864,0.1833720974470144,0.9562432240127268,1.2385139536862575,3.986934178775765,0.0921759275763684,-15.69386309120662,-35.457670583628015,-44.22159083298074,10.434499598142034,4.095839716337061,-17.829818279045096
2024-06-18 04:39:30.51,-0.0651043780447275,0.1861007944055709,0.9659572553598884,1.3404120327884788,4.157578390447993,0.8437284690941913,-15.681083702134533,-35.449357795418976,-44.07827770276183,10.65082338829184,4.334408273713154,-17.85161507649024
2024-06-18 04:39:30.62,-0.0695461871610275,0.1887537660718142,0.968383369388362,1.391111556083976,4.214801303229717,-0.3175015626544215,-15.544501315269626,-35.545134347074104,-44.08850950535648,10.884113192533157,4.609540839119937,-17.880978893475135
2024-06-18 04:39:30.73,-0.0752175002802757,0.1918763165536322,0.9702015002139192,1.1405920947784882,4.620459614886011,-0.0193180068666425,-15.158852426112352,-36.77205075500753,-43.856580576875714,11.103335289149513,4.907427618552755,-17.914374740921456
2024-06-18 04:39:30.85,-0.0818699559506148,0.1966717735723865,0.9688637487131596,1.1872914699063355,2.8650286850804894,1.3592603001713484,-16.143421676142346,-36.52141255018214,-39.08674883809056,11.342445296916996,5.206365357589901,-17.930065030381208
2024-06-18 04:39:31.06,-0.0892456528069904,0.2021785428398679,0.978009752130982,-8.929555173694814,1.9178607313480815,0.1065104782995973,-18.695575029611355,-34.21004053278622,-31.281247533503784,10.724276798134506,4.951823281917244,-17.777488655964337
2024-06-18 04:39:31.16,-0.0887357604535956,0.1989326575341368,1.0141904190252933,-6.611512133976426,2.196314110669934,0.8967682044573011,-18.57584730912148,-34.03620483883547,-32.65952071985587,10.095073022405607,5.094466115579443,-17.736434254190485
2024-06-18 04:39:31.27,-0.0873112583213474,0.1874530075708758,1.0207169275516057,-4.483802510942947,0.8056065727281034,1.2940902625595527,-18.73607056931848,-33.9618044096142,-33.07251900188733,9.664132343506848,5.067308516643447,-17.591853053263193
2024-06-18 04:39:31.38,-0.0882746036352673,0.1740837979003517,1.0066061343108152,-3.088337816267493,1.791693215957333,1.41733756610489,-18.892359715202268,-34.01002785966259,-33.26900856571232,9.393345819962583,5.045129402450628,-17.462947523470113
2024-06-18 04:39:31.49,-0.0884101666708672,0.165828734151857,0.9982678323636344,-1.4625699090286173,1.9272697651247972,1.2464931658762397,-18.80219112323044,-33.89452329483634,-33.752409935489744,9.251448663052305,5.138095799800733,-17.384925495121767
2024-06-18 04:39:31.61,-0.0851970454591456,0.1617249404838828,0.99589782417265,-0.6116164693280207,1.4863772064340677,0.6371722522632848,-19.003811245636484,-33.84466991818219,-33.18785445061681,9.222892611410415,5.177933856425697,-17.30538572077586
2024-06-18 04:39:31.82,-0.0850443315147521,0.1600178549403334,0.9866458408703976,0.9423585732074552,1.640234697223881,1.9909435653555727,-16.922754589581462,-35.70060243030217,-43.2235682231041,9.29806583220072,5.177188506358327,-17.07872241695769
2024-06-18 04:39:31.92,-0.0828623143471457,0.1594480124562896,0.964761483206574,2.5596658339474594,2.3699871613310277,1.3345798298082574,-15.964006527849824,-36.19726815140702,-45.22113512575413,9.547908311536789,5.226352415457364,-16.9467331585676
2024-06-18 04:39:32.03,-0.0820550939200693,0.1616898557120867,0.9535604929088044,3.4779839718663443,3.010711873415915,1.699964887968238,-15.7368559478621,-36.48999806143739,-44.93245368264563,9.952081824116142,5.340259196920186,-16.80327310244714
2024-06-18 04:39:32.14,-0.0840042037623532,0.1685270494867453,0.9599067703437189,3.8308687759410622,3.4199784251817125,1.87134452404589,-15.982410859947503,-36.60416821946907,-44.60553853601462,10.403585228978438,5.491742284285871,-16.66214149143938
2024-06-18 04:39:32.25,-0.0870630391379084,0.1774496261947853,0.965932864429674,3.9873975293391615,3.791191288924801,1.3365278517100214,-16.131453847717058,-36.63023644044591,-44.19868911269729,10.872806891840527,5.671579494474082,-16.518084655197452
2024-06-18 04:39:32.37,-0.0903407024221729,0.1859087756809734,0.9688949211269294,3.965031602024864,3.9632470784121487,0.8543482629654628,-16.16867241886322,-36.65676411675472,-43.62622056937659,11.369683674733414,5.884014508031474,-16.387634734133737
2024-06-18 04:39:32.58,-0.0953347409172422,0.2091399498758991,0.9692038544256844,4.637732394657998,3.775986878838582,1.8743079577057928,-15.947429990032605,-36.1346047836914,-41.1346558851951,12.345631161071385,6.253114522606444,-16.215838136662352
2024-06-18 04:39:32.68,-0.096187397932094,0.226190886958519,0.9677574657372896,5.475686767381074,3.643678140214372,2.951618664598804,-16.098037330677244,-35.98815646008088,-39.62784907281954,12.954247500253468,6.370525768861375,-16.064637572679654
2024-06-18 04:39:32.79,-0.098800117244759,0.2443390101210489,0.964674865382188,6.750877366535818,3.238364882620916,2.863477278980038,-16.885252722552437,-35.821936268228484,-35.89259310314836,13.743373330061337,6.440967666433824,-15.84055043274977
2024-06-18 04:39:32.90,-0.1017025243180769,0.264586290276223,0.9603961313379002,8.164715387550451,2.2762125077092903,2.74994451382019,-17.860622449637244,-35.4764730997623,-30.985168713057917,14.713770315516957,6.418266834632434,-15.560250270225184
2024-06-18 04:39:33.01,-0.1027175608130738,0.2887982357279547,0.9561975454068288,7.954564113898149,1.4652459296261655,2.860569156745583,-18.238001171287344,-35.47716394936695,-28.469031326237427,15.847103310804908,6.287437883534093,-15.234775434258545
2024-06-18 04:39:33.13,-0.1049947708186157,0.3088603920404178,0.9520924762332142,4.4355726261756825,1.3451417240379546,2.583904549038215,-18.269805884150195,-36.069525901258686,-27.9276646151068,16.888329236337242,6.102053625685941,-14.897803836463414
2024-06-18 04:39:33.34,-0.1069104441964396,0.3203026474509321,0.9462562031532352,-3.299712098972755,2.4750396130454093,2.734291557203441,-18.07150390148148,-36.11042350857055,-27.764382639296237,17.421046151396265,5.922183313922102,-14.354729000732007
2024-06-18 04:39:33.45,-0.1066379190190382,0.3183968334462507,0.944428044174598,-6.696484055776387,3.424097938412032,2.3955076229914303,-18.089139070001416,-35.66412503526658,-28.56374094232689,17.117061923491217,5.958291611257317,-14.055938017761491
2024-06-18 04:39:33.55,-0.10781504517541,0.3107553722557755,0.944951763972322,-9.06345329836299,4.211531058996716,1.6149490580255157,-18.12945038642805,-35.24332980699376,-29.309221778811903,16.570635181011845,6.092308080852979,-13.844347500372058
2024-06-18 04:39:33.66,-0.1108606735391676,0.2984214321709811,0.9473269539286426,-11.242557894440475,4.9006577259657,1.1260154441191284,-18.0521904891236,-34.78782686503531,-30.20074462716384,15.749919708123189,6.342563829255713,-13.699040707665985
2024-06-18 04:39:33.77,-0.1132116663534355,0.2805382573957736,0.9513628747879814,-12.853606983819963,4.982298150839553,1.5717426947937847,-17.93358310332564,-34.09360409723473,-31.2736315890216,14.755279978726346,6.628532080409734,-13.558165059684228
2024-06-18 04:39:33.89,-0.1168617481752908,0.2542249462089023,0.9562564308336872,-14.295924762201397,4.768666434298247,2.433118318317334,-17.89748086442618,-33.14601977133216,-32.7279032473612,13.4135111640921,6.93487814461814,-13.306306357731753
2024-06-18 04:39:34.10,-0.1274144869170059,0.2031911746381119,0.9616780169672388,-14.62885992825613,4.8802037838664285,2.7792833273780446,-18.00980801229529,-31.6090696971473,-35.230165564792,10.825244920102714,7.478800453535283,-12.707063954882656
2024-06-18 04:39:34.21,-0.1320528491388769,0.1798691249585511,0.9643956863183836,-14.18935081747644,5.007156254683907,2.5822718426376934,-18.010928741770673,-30.799140647401032,-36.19737583816701,9.566971394591851,7.808277755299842,-12.42429768770251
2024-06-18 04:39:34.31,-0.1366596251922595,0.1547177679841665,0.968700168574264,-14.31393670688005,5.0980967681299205,2.953147544992503,-17.929713873972005,-29.802101372466986,-37.393482220670975,8.328371405888415,8.158546736927883,-12.154473273484172
2024-06-18 04:39:34.42,-0.1414827903844777,0.1282598248766535,0.9727515651653172,-13.973479202151244,4.879793016282202,4.057671420410681,-17.9102657360482,-28.888735991809728,-38.44620299345582,6.965527436889623,8.548971312350378,-11.821804106297035
2024-06-18 04:39:34.53,-0.147283486231772,0.1003949667841172,0.9753114017713228,-13.692014515677748,4.255993060419587,4.35847845918702,-17.93130125952449,-28.051038975875503,-39.50705136821925,5.646089271282324,8.89829859230903,-11.46537561969601
2024-06-18 04:39:34.65,-0.1541884187631745,0.0724414269156001,0.9766982725837262,-12.774902959901564,3.954582320176212,5.578787442841293,-18.05998202035912,-26.971057661360856,-40.45068174470426,4.34524174650857,9.22760396583204,-11.0246623410999
2024-06-18 04:39:34.86,-0.1628175175293737,0.0279622757462797,0.976008673035328,-10.504649027948458,2.988375089313902,7.040784164462472,-18.45663406161765,-25.572202300969572,-41.81377453076837,2.205263302057131,9.786238553402717,-9.881962318869624
2024-06-18 04:39:34.97,-0.1680963849120639,0.0060029743005512,0.9753717231165048,-9.292961424476248,2.4665776400317445,8.182040201826409,-18.723676281146076,-24.78900801481023,-42.5543634100733,1.2567419066416987,10.03351193308013,-9.18744750396919
2024-06-18 04:39:35.08,-0.1705051330880919,-0.0106956149324434,0.9757646369997854,-8.450166532912753,1.8173413487026933,9.107250535504573,-19.023189770852387,-24.05282991781625,-43.20606474379094,0.4860239773280838,10.215906749105876,-8.445975168959261
2024-06-18 04:39:35.18,-0.1717455853946805,-0.0246636920647403,0.976762862930492,-7.431663935588997,1.512620545044769,9.06441056300589,-19.42924824412471,-23.61272740290788,-43.56887614471136,-0.1992819985821515,10.357422895756711,-7.650977107561562
2024-06-18 04:39:35.29,-0.1740299036025114,-0.0387526246053304,0.9763265698034812,-6.247796627573579,1.0655198352795971,8.891308381228553,-19.78769209803556,-23.06152670340983,-44.171229851537234,-0.8146580964550674,10.489809107229997,-6.756344623061703
2024-06-18 04:39:35.41,-0.1739678064504928,-0.0516481269163585,0.978170458837954,-5.196857301409497,0.3339966003025873,10.27662930928742,-20.370514710041288,-22.427704291853832,-44.607220006228175,-1.3687576665829042,10.57218284690806,-5.697464374269252
2024-06-18 04:39:35.62,-0.1741165455785424,-0.0647984839094463,0.981448350762078,-4.465776154003759,0.0752380668166129,9.748979764551487,-21.409753092860857,-21.8968410225121,-44.90384347344013,-2.0757976011437043,10.6166367897015,-3.724412909555459
2024-06-18 04:39:35.73,-0.1727478864816378,-0.0699688007748556,0.9819380142452898,-3.9096212817000975,-0.2961030574834229,11.56489144913904,-22.107563447752664,-21.480063073543786,-45.124777279940936,-2.401705568341491,10.630996978614588,-2.5795064520360405
2024-06-18 04:39:35.84,-0.1720495245551257,-0.0740636628489718,0.9829889408877232,-3.60026623307761,-1.1054105479350145,10.41030331903393,-22.67653960446681,-20.94628097031465,-45.2744477156181,-2.6634702423790757,10.57127953999099,-1.391783945653216
2024-06-18 04:39:35.94,-0.1715602441982153,-0.0764223786104008,0.984163191788448,-2.829244869854642,-1.4850871368985323,10.382505385115774,-23.379151126817398,-20.855228662062608,-45.32145010751351,-2.842173269799527,10.468642892625889,-0.4174273358277777
2024-06-18 04:39:36.05,-0.1687347918377926,-0.0788006185302568,0.9848336178292776,-1.1450889678152645,-1.2534914262257246,11.606599851096396,-24.052444263354445,-20.64487527111928,-45.32403690371687,-2.8952604241010893,10.352346678815476,0.7872423323403656
2024-06-18 04:39:36.17,-0.1641015830713956,-0.0796441459791471,0.9852070431966208,-0.304809038959158,-1.1865917563394888,12.05298693226882,-24.797258875917525,-20.30905124207758,-45.3696396553097,-2.808279296090916,10.239544617675252,2.1780575696844178
2024-06-18 04:39:36.38,-0.1563014791372559,-0.0732572424479584,0.9870231709107516,0.3171602605667631,-0.6654432582333873,12.593668404195396,-26.09409462403073,-20.133042298585494,-45.24677456921398,-2.5266228345287143,10.037883972999037,4.657926597778538
2024-06-18 04:39:36.49,-0.1526503960403589,-0.069788779618552,0.9869080524929328,0.7461994480088749,-0.3665437746085974,12.110887208328135,-26.769332203354235,-20.028550726027145,-45.19749005177695,-2.323971927705242,9.962495365491126,5.921247716294166
2024-06-18 04:39:36.60,-0.1498617290590689,-0.0653638377052066,0.9878031912907744,1.135792680351593,-0.0888886205668958,12.010209114576927,-27.362055237389107,-19.845760800576077,-45.07312665022353,-2.0650035049179545,9.895284090411137,7.255198756183289
2024-06-18 04:39:36.70,-0.1480763301515271,-0.060244692422506,0.9890183003830983,1.2866237713072166,0.2899343943775962,12.500141267342023,-28.023086531768445,-19.82170029926402,-45.178709126305066,-1.7964823891089865,9.850776569834526,8.495274113554444
2024-06-18 04:39:36.81,-0.1466586365059264,-0.0537531630781187,0.9903331067746848,1.49767308992844,0.5432220288554502,12.653247384283429,-28.6023185664848,-19.716378122203132,-45.05097576511077,-1.4830893798522309,9.82656970934976,9.850288497011691
2024-06-18 04:39:36.93,-0.1451115159985737,-0.0462155294383469,0.9918924990596044,1.9452632973634376,0.5849987049002295,12.135632832835224,-29.034849859980746,-19.489382448339573,-44.92302296216674,-1.1200219225521617,9.794647237844387,11.238807633853074
2024-06-18 04:39:37.14,-0.1433173604239531,-0.0313268217609538,0.993704175105249,2.292188551176401,1.0054660951365133,12.518353773915385,-30.258793363004344,-19.545133626311333,-45.04313208715252,-0.3155307632863974,9.737162662826549,13.841010534025362
2024-06-18 04:39:37.25,-0.1429809367052999,-0.0233036462288804,0.9950456326332596,1.7327977407351232,1.380209851314173,12.38634534186962,-30.79449119661069,-19.48155939934482,-44.54361470237804,0.0925388380220314,9.716384747000172,15.252160665804062
2024-06-18 04:39:37.36,-0.1430984666919792,-0.0152855582396453,0.9959580313167664,1.3734383075589578,1.987624850415872,12.631933179097915,-31.22560919147641,-19.17290914283092,-44.412486042601685,0.436025550021572,9.736867055207831,16.57265540126141
2024-06-18 04:39:37.47,-0.1430214278842168,-0.0071255188440787,0.9956903321587148,0.9512588906242692,2.462337388372265,12.543684231419126,-31.749752823110292,-18.94873509850636,-44.72636742323128,0.7578926399961983,9.804146295384598,17.878951635788056
2024-06-18 04:39:37.57,-0.1437367110916657,-0.0004986885214106,0.9949169978447644,0.4915331661532602,2.7946330853069643,12.01840075979413,-32.196308262053044,-18.83749136085522,-44.69057220019574,1.023191679819644,9.89061109437082,19.0914931288146
2024-06-18 04:39:37.69,-0.1457229366359008,0.0059875616472186,0.9940055485161162,0.2699429108737566,2.902533683330076,12.351924611217918,-32.51749559258586,-18.50857051751902,-44.41196914175088,1.3144444403396105,10.007382711877543,20.53705453245255
2024-06-18 04:39:37.90,-0.1489146254760394,0.0164285192851019,0.992450397507433,0.2595178818574153,2.8762053538051924,12.791384768255943,-33.30579269784245,-18.05920559705797,-44.66826176911856,1.8254156332227065,10.17138987068668,22.981801829374355
2024-06-18 04:39:38.01,-0.1510191102901696,0.0209977663605961,0.991998684191975,0.1083019699388314,3.231902184080462,12.211276090865578,-33.76274026032148,-17.87444573724745,-44.53935859532549,2.111741185273661,10.273156908001846,24.34954109452598
2024-06-18 04:39:38.12,-0.1528437061842257,0.0246788390641447,0.9919903546819197,-0.165350449092649,3.593781356740469,12.24797738227818,-34.01981479369727,-17.44501812447392,-44.46461911172404,2.3658931161484897,10.409221250893742,25.699073526833576
2024-06-18 04:39:38.23,-0.1553261291749185,0.0293336647006013,0.99092135655659,-0.3636357054692518,3.6087445492610506,12.609155275563356,-34.34618457837454,-17.02343598856873,-44.80416499588793,2.588396076621423,10.553673847898471,27.007767521254664
2024-06-18 04:39:38.33,-0.1579870830189992,0.0336960590042044,0.9893180318593344,-0.6535714192000356,3.505492607206065,12.166953157307256,-34.681402947331215,-16.729528097608604,-45.06079827922647,2.7733052460879346,10.668298647714858,28.17768530348715
2024-06-18 04:39:38.45,-0.1607889749727829,0.0371015537294546,0.988645955292577,-0.8468439946580868,3.271556462715159,11.806744127825777,-34.91796039150811,-16.225635727493128,-44.90603594506088,2.975422384116304,10.787653053906023,29.60923715570366
2024-06-18 04:39:38.66,-0.1650707357328295,0.0435605171445406,0.9868272286712704,-0.1597300447601906,3.493215708518409,11.575715058478462,-35.62617118287884,-15.608819445534944,-45.31171509009759,3.386112947590767,10.982941385518709,32.06850241557492
2024-06-18 04:39:38.77,-0.1683807010767218,0.0456377036857978,0.9864697569047148,-0.3196686338073669,3.282257193993526,10.8126101713242,-36.50910869794821,-15.3729259333836,-45.48352460334006,3.606402401727373,11.09851732843989,33.19032774903192
2024-06-18 04:39:38.88,-0.1719620833582585,0.0483285454089031,0.9862105534199485,-1.0434613526380867,2.954523634361781,9.608331999482846,-37.42508889991807,-14.719979205682415,-45.91409423950185,3.735285400171098,11.18853295221251,34.11990862857614
2024-06-18 04:39:38.99,-0.1737624856175523,0.0516963370454465,0.9859052982588832,-1.6118975575653536,2.805460506078964,7.990752357737283,-37.86779003097757,-14.425615575672468,-45.979647161629785,3.788133268235109,11.277905530439972,35.03280952805337
2024-06-18 04:39:39.10,-0.1742597463477449,0.0530387394920369,0.9851677528150282,-1.829299791000931,2.638718106817847,6.882423413625396,-37.75617443128575,-14.012680220982984,-45.85818971195447,3.798284053484245,11.342049931138629,35.76206802835691
2024-06-18 04:39:39.21,-0.1750246955094832,0.0530306919519997,0.9851481447263624,-2.169924590212012,2.3821632439358407,6.327435140352588,-37.80237097733466,-13.256107805041886,-45.91135357213597,3.769860414079648,11.387884045894667,36.54825271617948
2024-06-18 04:39:39.42,-0.1761490889177568,0.052398199455011,0.9860471859522956,-2.7229299829836515,1.913818540690461,5.4697360946234825,-38.236889856605885,-12.929600827606675,-46.22194163299169,3.616293843751048,11.419950112259563,37.79830258487436
2024-06-18 04:39:39.53,-0.1764831820141435,0.0511461400930033,0.9860450625980396,-3.040023918200574,1.5026779442292586,5.860463392631097,-38.351381542472346,-12.846286568167084,-46.3209910661513,3.504957833692468,11.398375810658807,38.29583698559122
2024-06-18 04:39:39.64,-0.1765883213644354,0.0485537404251408,0.9859781395799836,-3.4675552532134524,1.052971044479896,6.677185033306956,-38.52050800945175,-12.318278950980378,-46.33009017330389,3.303922291105897,11.327954704211004,38.92414547476855
2024-06-18 04:39:39.75,-0.175275917312917,0.0456950535594931,0.9860026925469076,-3.869229144580044,0.8638390662716532,5.3770252790361655,-38.74430050806334,-11.661688013472274,-46.416494090110106,3.100848084702772,11.24777235536624,39.41771090531488
2024-06-18 04:39:39.86,-0.1727539558307384,0.0414989196275383,0.9859124839284392,-4.300517597781774,0.9316024356465028,6.091662692745906,-39.15281868380266,-11.431284648043178,-46.65834345102844,2.826516324920945,11.152461908488934,39.94039404821961
2024-06-18 04:39:39.97,-0.1703422378370621,0.0357710908533206,0.9851022100103948,-4.100198450104339,1.5727018468330358,5.705902171432405,-39.88251128973784,-11.21318060819984,-47.092888343142185,2.5348085544042704,11.103729483790955,40.47192834932285
2024-06-18 04:39:40.18,-0.1675404238501232,0.025767789601169,0.9842978757962568,-3.905087353335847,1.256311373285156,4.437997114253128,-40.62804925398782,-10.785834792296749,-47.594369656522176,2.0230805080666765,11.017342749867478,41.42042034843311
2024-06-18 04:39:40.29,-0.1676598563279162,0.0211673244781981,0.9839527644909482,-2.935921999769387,1.9430397817413236,4.664340062113809,-40.69952835924857,-10.52051611569058,-47.66850261907637,1.79958115563726,11.01382884531779,41.928114487934565
2024-06-18 04:39:40.40,-0.1663882211531863,0.0155139079323103,0.9837297617517492,-2.159691489040978,2.164839040491348,4.734194503643889,-40.76110101974125,-10.087028734691517,-47.94265301296793,1.6814725423223629,11.063682362754683,42.46755276408204
